Folder: dielectric_spectroscopy_gui/data_example/1_solartron_output (part 4)

File: V429_w83.csv
Exported SMaRT Impedance Data
Experiment start time : 3/6/2011 9:40:46 PM

Result Number,Sweep Number,Point Number,Time,Frequency (Hz),AC Level (V),DC Level (V),Temperature (K),Impedance Magnitude (Ohms),Impedance Phase Degrees ('),Impedance Real (Ohms),Impedance Imaginary (Ohms)
1,1,1,00:00:08,10000000,3,0,-,6624.609,-83.68166,729.0568,-6584.369,
43,1,43,00:02:31,3162.278,3,0,-,2.744592E+07,-41.09591,2.068354E+07,-1.804079E+07,
85,4,7,00:09:28,3162278,3,0,-,31758.1,-85.81441,2317.947,-31673.39,
127,4,49,00:11:50,1000,3,0,-,3.271708E+07,-19.47083,3.084604E+07,-1.090548E+07,
169,7,13,00:18:45,1000000,3,0,-,134738.8,-88.81592,2784.366,-134710,
211,7,55,00:21:08,316.2278,3,0,-,3.480168E+07,-28.44411,3.06005E+07,-1.657608E+07,
253,10,19,00:27:52,316227.8,3,0,-,429109.7,-88.94154,7926.926,-429036.5,
295,10,61,00:30:16,100,3,0,-,5.76929E+07,-54.20452,3.374422E+07,-4.679528E+07,
337,13,25,00:37:10,100000,3,0,-,1356338,-87.45557,60213.59,-1355001,
379,14,6,00:39:43,14.67799,3,0,-,2.645663E+08,-65.74708,1.086747E+08,-2.41216E+08,
421,16,31,00:46:30,31622.78,3,0,-,4246724,-82.11989,582230.4,-4206623,
463,17,12,00:49:41,1.467799,3,0,-,1.47499E+09,-80.9026,2.332158E+08,-1.456436E+09,
505,19,37,00:55:36,10000,3,0,-,1.2324E+07,-65.71727,5068121,-1.123366E+07,
547,22,1,01:02:35,10000000,3,0,-,6629.141,-83.55672,743.9204,-6587.267,
589,22,43,01:05:00,3162.278,3,0,-,2.390149E+07,-35.31348,1.950366E+07,-1.381625E+07,
631,25,7,01:12:04,3162278,3,0,-,31762.3,-85.84642,2300.56,-31678.88,
673,25,49,01:14:25,1000,3,0,-,2.70286E+07,-18.68343,2.560428E+07,-8658314,
715,28,13,01:21:12,1000000,3,0,-,134388.4,-88.84243,2714.953,-134361,
757,28,55,01:23:36,316.2278,3,0,-,3.023504E+07,-32.01971,2.563525E+07,-1.603095E+07,
799,31,19,01:30:18,316227.8,3,0,-,428828.5,-88.78333,9105.64,-428731.8,
841,31,61,01:32:44,100,3,0,-,5.469693E+07,-57.12769,2.968779E+07,-4.593898E+07,
883,34,25,01:39:22,100000,3,0,-,1355105,-86.77036,76344.63,-1352953,
925,35,6,01:41:58,14.67799,3,0,-,2.344966E+08,-64.23117,1.019454E+08,-2.111772E+08,
967,37,31,01:48:30,31622.78,3,0,-,4216591,-80.24067,714755.3,-4155570,
1009,38,12,01:51:43,1.467799,3,0,-,1.415284E+09,-82.14015,1.93541E+08,-1.401988E+09,
1051,40,37,01:58:28,10000,3,0,-,1.182541E+07,-61.29124,5680428,-1.037174E+07,
1093,43,1,02:05:14,10000000,3,0,-,6632.781,-83.49931,750.9341,-6590.135,
1135,43,43,02:07:38,3162.278,3,0,-,2.085578E+07,-31.03096,1.787108E+07,-1.075118E+07,
1177,46,7,02:14:25,3162278,3,0,-,31746.62,-85.72456,2366.765,-31658.27,
1219,46,49,02:16:48,1000,3,0,-,2.260338E+07,-18.77273,2.140093E+07,-7274105,
1261,49,13,02:23:57,1000000,3,0,-,134543.8,-88.70013,3052.187,-134509.2,
1303,49,55,02:26:25,316.2278,3,0,-,2.65235E+07,-36.04612,2.144541E+07,-1.560739E+07,
1345,52,19,02:33:08,316227.8,3,0,-,428360.4,-88.49924,11218.97,-428213.5,
1387,52,61,02:35:37,100,3,0,-,5.091488E+07,-60.69959,2.491718E+07,-4.440112E+07,
1429,55,25,02:42:35,100000,3,0,-,1353370,-85.96847,95149.72,-1350021,
1471,56,6,02:45:08,14.67799,3,0,-,2.109684E+08,-63.83155,9.303958E+07,-1.893444E+08,
1513,58,31,02:52:02,31622.78,3,0,-,4185047,-78.18775,856702.3,-4096422,
1555,59,12,02:55:12,1.467799,3,0,-,1.3647E+09,-82.996,1.664101E+08,-1.354516E+09,
1597,61,37,03:01:17,10000,3,0,-,1.123052E+07,-56.77003,6154336,-9394078,
1639,64,1,03:08:18,10000000,3,0,-,6635.768,-83.4269,759.6029,-6592.148,
1681,64,43,03:10:41,3162.278,3,0,-,1.810688E+07,-27.2299,1.610024E+07,-8285020,
1723,67,7,03:17:36,3162278,3,0,-,31710.91,-85.4781,2500.1,-31612.2,
1765,67,49,03:19:57,1000,3,0,-,1.820219E+07,-19.87104,1.711844E+07,-6187003,
1807,70,13,03:26:49,1000000,3,0,-,134000.4,-88.54596,3400.306,-133957.3,
1849,70,55,03:29:13,316.2278,3,0,-,2.243527E+07,-42.48717,1.654441E+07,-1.515334E+07,
1891,73,19,03:36:05,316227.8,3,0,-,427314.3,-88.28864,12761.61,-427123.7,
1933,73,61,03:38:31,100,3,0,-,4.866847E+07,-62.17904,2.271408E+07,-4.30429E+07,
1975,76,25,03:45:20,100000,3,0,-,1349979,-85.19859,112996.8,-1345241,
2017,77,6,03:47:52,14.67799,3,0,-,1.918775E+08,-64.02898,8.402633E+07,-1.725008E+08,
2059,79,31,03:55:25,31622.78,3,0,-,4143453,-76.05935,998228.3,-4021410,
2101,80,12,03:58:35,1.467799,3,0,-,1.312457E+09,-83.48974,1.488083E+08,-1.303993E+09,
2143,82,37,04:05:30,10000,3,0,-,1.059126E+07,-52.21038,6489947,-8369915,
2185,85,1,04:12:41,10000000,3,0,-,6639.116,-83.32772,771.4017,-6594.149,
2227,85,43,04:15:05,3162.278,3,0,-,1.423487E+07,-22.74497,1.312789E+07,-5503626,
2269,88,7,04:22:10,3162278,3,0,-,31689.53,-85.55462,2456.225,-31594.2,
2311,88,49,04:24:32,1000,3,0,-,1.425807E+07,-22.69592,1.3154E+07,-5501338,
2353,91,13,04:31:36,1000000,3,0,-,134330.1,-88.44864,3636.767,-134280.9,
2395,91,55,04:33:59,316.2278,3,0,-,2.042456E+07,-46.60598,1.403192E+07,-1.484143E+07,
2437,94,19,04:41:04,316227.8,3,0,-,427136.1,-87.96181,15191.46,-426865.9,
2479,94,61,04:43:29,100,3,0,-,4.684007E+07,-62.54881,2.159295E+07,-4.156606E+07,
2521,97,25,04:50:30,100000,3,0,-,1346658,-84.408,131224.2,-1340249,
2563,98,6,04:53:02,14.67799,3,0,-,1.75843E+08,-64.65966,7.525986E+07,-1.589236E+08,
2605,100,31,04:59:57,31622.78,3,0,-,4079313,-73.13063,1183779,-3903775,
2647,101,12,05:03:07,1.467799,3,0,-,1.251154E+09,-83.7915,1.353088E+08,-1.243816E+09,
2689,103,37,05:09:51,10000,3,0,-,9319695,-44.50225,6647021,-6532521,
2731,106,1,05:16:52,10000000,3,0,-,6647.292,-83.35515,769.1917,-6602.639,
2773,106,43,05:19:16,3162.278,3,0,-,1.167249E+07,-20.0608,1.096431E+07,-4003863,
2815,109,7,05:26:21,3162278,3,0,-,31714.97,-85.82246,2310.36,-31630.7,
2857,109,49,05:28:43,1000,3,0,-,1.222527E+07,-25.33165,1.104977E+07,-5230670,
2899,112,13,05:35:46,1000000,3,0,-,134159.1,-88.42175,3695.078,-134108.2,
2941,112,55,05:38:08,316.2278,3,0,-,1.896846E+07,-49.69494,1.226989E+07,-1.446556E+07,
2983,115,19,05:45:11,316227.8,3,0,-,427075.7,-87.63209,17645.2,-426711,
3025,115,61,05:47:35,100,3,0,-,4.491332E+07,-62.24485,2.091588E+07,-3.974585E+07,
3067,118,25,05:54:36,100000,3,0,-,1341107,-82.94066,164818.8,-1330941,
3109,119,6,05:57:07,14.67799,3,0,-,1.558585E+08,-66.9876,6.092986E+07,-1.434553E+08,
3151,121,31,06:04:04,31622.78,3,0,-,3967685,-68.92908,1426475,-3702390,
3193,122,12,06:07:13,1.467799,3,0,-,1.210057E+09,-83.6966,1.328565E+08,-1.202741E+09,
3235,124,37,06:13:29,10000,3,0,-,8403319,-39.57978,6476760,-5354190,
3277,127,1,06:20:30,10000000,3,0,-,6592.143,-83.87267,703.6375,-6554.482,
3319,127,43,06:22:54,3162.278,3,0,-,1.001924E+07,-18.96372,9475437,-3255944,
3361,130,7,06:29:58,3162278,3,0,-,31712.55,-85.89749,2268.765,-31631.29,
3403,130,49,06:32:19,1000,3,0,-,1.078355E+07,-28.03474,9518241,-5068342,
3445,133,13,06:39:22,1000000,3,0,-,134115,-88.36338,3830.439,-134060.3,
3487,133,55,06:41:45,316.2278,3,0,-,1.796028E+07,-52.29953,1.098332E+07,-1.42105E+07,
3529,136,19,06:48:54,316227.8,3,0,-,426687.7,-87.13874,21299.38,-426155.8,
3571,136,61,06:51:19,100,3,0,-,4.17506E+07,-61.09679,2.017939E+07,-3.655003E+07,
3613,139,25,06:58:25,100000,3,0,-,1335009,-81.62635,194415.2,-1320777,
3655,140,6,07:00:56,14.67799,3,0,-,1.454919E+08,-69.27312,5.149161E+07,-1.360754E+08,
3697,142,31,07:08:02,31622.78,3,0,-,3871045,-65.76558,1588952,-3529904,
3739,143,12,07:11:11,1.467799,3,0,-,1.187153E+09,-83.29251,1.386603E+08,-1.179027E+09,
3781,145,37,07:17:33,10000,3,0,-,7620764,-35.69505,6189082,-4446495,
3823,148,1,07:24:38,10000000,3,0,-,6624.219,-83.47543,752.7068,-6581.315,
3865,148,43,07:27:02,3162.278,3,0,-,8694503,-18.14694,8262047,-2707946,
3907,151,7,07:34:12,3162278,3,0,-,31703.55,-85.37538,2556.178,-31600.33,
3949,151,49,07:36:34,1000,3,0,-,9527309,-31.18213,8150859,-4932861,
3991,154,13,07:43:43,1000000,3,0,-,134177,-88.02869,4615.626,-134097.6,
4033,154,55,07:46:07,316.2278,3,0,-,1.671797E+07,-55.09112,9567244,-1.370979E+07,
4075,157,19,07:53:16,316227.8,3,0,-,426171.4,-86.64952,24907.13,-425442.9,
4117,157,61,07:55:41,100,3,0,-,3.882628E+07,-59.95747,1.94381E+07,-3.361012E+07,
4159,160,25,08:02:47,100000,3,0,-,1328487,-80.34105,222898.2,-1309654,
4201,161,6,08:05:19,14.67799,3,0,-,1.382669E+08,-71.37784,4.415222E+07,-1.310279E+08,
4243,163,31,08:12:21,31622.78,3,0,-,3766165,-62.65451,1730007,-3345307,
4285,164,12,08:15:32,1.467799,3,0,-,1.163343E+09,-82.58467,1.501424E+08,-1.153614E+09,
4327,166,37,08:21:53,10000,3,0,-,6930028,-32.17604,5865687,-3690394,
4369,169,1,08:29:02,10000000,3,0,-,6582.692,-84.17696,667.8585,-6548.725,
4411,169,43,08:31:29,3162.278,3,0,-,7294103,-18.23862,6927657,-2282872,
4453,172,7,08:38:42,3162278,3,0,-,31784.13,-85.93297,2254.249,-31704.09,
4495,172,49,08:41:04,1000,3,0,-,8223843,-35.41458,6702271,-4765622,
4537,175,13,08:48:16,1000000,3,0,-,134435.8,-88.02613,4630.519,-134356.1,
4579,175,55,08:50:39,316.2278,3,0,-,1.591668E+07,-56.12202,8872374,-1.321445E+07,
4621,178,19,08:57:51,316227.8,3,0,-,425233.9,-86.18261,28310.84,-424290.5,
4663,178,61,09:00:15,100,3,0,-,3.601912E+07,-59.12785,1.848228E+07,-3.091573E+07,
4705,181,25,09:07:25,100000,3,0,-,1323112,-79.01926,252025.1,-1298887,
4747,182,6,09:09:57,14.67799,3,0,-,1.327973E+08,-73.24715,3.827806E+07,-1.27161E+08,
4789,184,31,09:17:02,31622.78,3,0,-,3645363,-59.46513,1852074,-3139824,
4831,185,12,09:20:12,1.467799,3,0,-,1.135637E+09,-81.40583,1.697039E+08,-1.122885E+09,
4873,187,37,09:26:56,10000,3,0,-,5914187,-27.84386,5229464,-2762301,
4915,190,1,09:34:00,10000000,3,0,-,4588.949,-98.47482,-676.2952,-4538.841,
4957,190,43,09:36:25,3162.278,3,0,-,6026389,-18.71894,5707619,-1934025,
4999,193,7,09:43:32,3162278,3,0,-,31793.88,-86.32213,2039.49,-31728.4,
5041,193,49,09:45:54,1000,3,0,-,7434342,-38.24895,5838399,-4602448,
5083,196,13,09:53:03,1000000,3,0,-,134259.5,-88.09967,4452.216,-134185.6,
5125,196,55,09:55:26,316.2278,3,0,-,1.521027E+07,-56.40965,8415105,-1.267037E+07,
5167,199,19,10:02:33,316227.8,3,0,-,425027.2,-85.67493,32053.62,-423816.8,
5209,199,61,10:04:58,100,3,0,-,3.327479E+07,-58.67121,1.730118E+07,-2.842325E+07,
5251,202,25,10:12:02,100000,3,0,-,1314536,-77.59821,282317.9,-1283862,
5293,203,6,10:14:35,14.67799,3,0,-,1.278404E+08,-75.02791,3.302741E+07,-1.235005E+08,
5335,205,31,10:21:33,31622.78,3,0,-,3428542,-54.34744,1998390,-2785918,
5377,206,12,10:24:43,1.467799,3,0,-,1.073745E+09,-77.83625,2.262452E+08,-1.049639E+09,
5419,208,37,10:31:06,10000,3,0,-,5148787,-24.58736,4681936,-2142308,
5421,208,39,10:31:13,6812.92,3,0,-,5255871,-19.45587,4955752,-1750629,