Folder: dielectric_spectroscopy_gui/data_example/1_solartron_output (part 2)

File: V429_w45.csv
Exported SMaRT Impedance Data
Experiment start time : 3/7/2011 11:58:25 AM

Result Number,Sweep Number,Point Number,Time,Frequency (Hz),AC Level (V),DC Level (V),Temperature (K),Impedance Magnitude (Ohms),Impedance Phase Degrees ('),Impedance Real (Ohms),Impedance Imaginary (Ohms)
1,1,1,00:00:08,10000000,3,0,-,4516.137,-99.30392,-730.1303,-4456.725,
3,1,3,00:00:15,6812921,3,0,-,10475.76,-84.36471,1028.679,-10425.13,
5,1,5,00:00:25,4641589,3,0,-,18220.4,-86.72362,1041.346,-18190.62,
7,1,7,00:00:31,3162278,3,0,-,31885.48,-86.78756,1786.819,-31835.38,
9,1,9,00:00:38,2154435,3,0,-,57668.13,-89.6905,311.5337,-57667.29,
11,1,11,00:00:44,1467799,3,0,-,87803.18,-90.16846,-258.1784,-87802.8,
13,1,13,00:00:51,1000000,3,0,-,134537.9,-87.50597,5854.505,-134410.5,
15,1,15,00:00:57,681292.1,3,0,-,197755.4,-86.60944,11695.69,-197409.3,
17,1,17,00:01:05,464158.9,3,0,-,289490.7,-85.28062,23818.07,-288509.2,
19,1,19,00:01:12,316227.8,3,0,-,422897.4,-83.52565,47685.38,-420200.3,
21,1,21,00:01:18,215443.5,3,0,-,615453.6,-80.93716,96944.95,-607770.3,
23,1,23,00:01:25,146779.9,3,0,-,891481.6,-76.94634,201353.3,-868444.8,
25,1,25,00:01:31,100000,3,0,-,1270302,-71.45579,404002.5,-1204346,
27,1,27,00:01:37,68129.21,3,0,-,1764908,-64.15672,769343.3,-1588399,
29,1,29,00:01:46,46415.89,3,0,-,2342391,-54.86053,1348207,-1915498,
31,1,31,00:01:53,31622.78,3,0,-,2922411,-44.19999,2095108,-2037402,
33,1,33,00:01:59,21544.35,3,0,-,3381607,-33.73934,2812053,-1878197,
35,1,35,00:02:06,14677.99,3,0,-,3678659,-25.12508,3330595,-1561943,
37,1,37,00:02:13,10000,3,0,-,3770797,-19.61986,3551869,-1266151,
39,1,39,00:02:20,6812.92,3,0,-,3787424,-17.15001,3619020,-1116815,
41,1,41,00:02:26,4641.589,3,0,-,3802041,-18.38503,3607979,-1199168,
43,1,43,00:02:33,3162.278,3,0,-,3896395,-22.63839,3596188,-1499776,
45,1,45,00:02:40,2154.435,3,0,-,4209958,-29.375,3668675,-2065083,
47,1,47,00:02:46,1467.799,3,0,-,4776316,-36.98065,3815506,-2873170,
49,1,49,00:02:53,1000,3,0,-,5794059,-44.12122,4159373,-4033699,
51,1,51,00:03:00,681.2921,3,0,-,7326470,-49.44763,4763253,-5566739,
53,1,53,00:03:07,464.1589,3,0,-,9426104,-52.66006,5717336,-7494232,
55,1,55,00:03:14,316.2278,3,0,-,1.205967E+07,-54.26128,7043933,-9788699,
57,1,57,00:03:22,215.4435,3,0,-,1.522128E+07,-55.58027,8603849,-1.255632E+07,
59,1,59,00:03:29,146.7799,3,0,-,1.908271E+07,-57.64545,1.021225E+07,-1.612017E+07,
61,1,61,00:03:36,100,3,0,-,2.413151E+07,-60.8559,1.175224E+07,-2.10764E+07,
63,2,2,00:03:46,68.1292,3,0,-,3.128351E+07,-64.98306,1.322937E+07,-2.834858E+07,
65,2,4,00:03:54,31.62278,3,0,-,5.76496E+07,-72.89157,1.695943E+07,-5.509859E+07,
67,2,6,00:04:02,14.67799,3,0,-,1.148929E+08,-76.90433,2.603222E+07,-1.119049E+08,
69,2,8,00:04:16,6.812921,3,0,-,2.325552E+08,-76.56076,5.404915E+07,-2.261871E+08,
71,2,10,00:04:32,3.162278,3,0,-,4.599626E+08,-72.15039,1.409876E+08,-4.37822E+08,
73,2,12,00:05:02,1.467799,3,0,-,8.624506E+08,-63.57436,3.838218E+08,-7.723354E+08,
75,3,1,00:05:47,1,3,0,-,1.125913E+09,-57.76511,6.005526E+08,-9.523745E+08,
77,3,3,00:07:20,0.2154435,3,0,-,2.378753E+09,-35.5798,1.934654E+09,-1.384044E+09,
79,3,5,00:14:30,0.04641589,3,0,-,5.104541E+09,-30.58023,4.39459E+09,-2.596906E+09,
81,3,7,00:37:17,0.01,3,0,-,3.901873E+10,33.41165,3.257034E+10,2.148568E+10,
83,4,2,00:37:30,8254042,3,0,-,4445.348,-69.12847,1583.762,-4153.651,
85,4,4,00:37:40,5623413,3,0,-,13694.01,-85.2278,1139.267,-13646.54,
87,4,6,00:37:46,3831187,3,0,-,24247.09,-86.6891,1400.371,-24206.62,
89,4,8,00:37:53,2610157,3,0,-,46636.97,-88.84929,936.5944,-46627.56,
91,4,10,00:37:59,1778280,3,0,-,71206.58,-90.21796,-270.9066,-71206.06,
93,4,12,00:38:06,1211528,3,0,-,110600,-87.79583,4253.775,-110518.2,
95,4,14,00:38:12,825404.2,3,0,-,163236.1,-87.02704,8466.249,-163016.4,
97,4,16,00:38:20,562341.3,3,0,-,239354.8,-85.94312,16933.69,-238755.1,
99,4,18,00:38:27,383118.7,3,0,-,349925.7,-84.37527,34297.22,-348240.9,
101,4,20,00:38:33,261015.7,3,0,-,509680.2,-82.22894,68916.58,-504999.4,
103,4,22,00:38:40,177828,3,0,-,739145.9,-78.9867,141204.3,-725532.9,
105,4,24,00:38:46,121152.8,3,0,-,1065126,-74.03693,292928.7,-1024054,
107,4,26,00:38:53,82540.42,3,0,-,1498962,-67.65766,569815.1,-1386433,
109,4,28,00:39:02,56234.13,3,0,-,2035825,-59.17494,1043195,-1748236,
111,4,30,00:39:08,38311.87,3,0,-,2613904,-49.01593,1714327,-1973215,
113,4,32,00:39:15,26101.57,3,0,-,3140749,-38.26782,2465878,-1945185,
115,4,34,00:39:21,17782.79,3,0,-,3484172,-28.7368,3055053,-1675144,
117,4,36,00:39:28,12115.28,3,0,-,3659041,-21.69832,3399774,-1352819,
119,4,38,00:39:35,8254.041,3,0,-,3702525,-17.73049,3526653,-1127566,
121,4,40,00:39:42,5623.413,3,0,-,3710238,-17.28025,3542770,-1102110,
123,4,42,00:39:48,3831.187,3,0,-,3751328,-20.2438,3519604,-1298017,
125,4,44,00:39:55,2610.157,3,0,-,3955996,-26.0154,3555160,-1735150,
127,4,46,00:40:02,1778.279,3,0,-,4371009,-33.44091,3647408,-2408761,
129,4,48,00:40:09,1211.528,3,0,-,5167974,-40.96867,3902173,-3388362,
131,4,50,00:40:16,825.4042,3,0,-,6415726,-47.005,4375106,-4692546,
133,4,52,00:40:23,562.3413,3,0,-,8213519,-51.31376,5133905,-6411311,
135,4,54,00:40:29,383.1187,3,0,-,1.053269E+07,-53.40752,6278741,-8456646,
137,4,56,00:40:38,261.0157,3,0,-,1.335471E+07,-54.78088,7701732,-1.091016E+07,
139,4,58,00:40:45,177.8279,3,0,-,1.675253E+07,-56.49245,9248183,-1.396848E+07,
141,4,60,00:40:52,121.1528,3,0,-,2.105699E+07,-59.26669,1.076103E+07,-1.809965E+07,
143,5,1,00:41:00,100,3,0,-,2.3762E+07,-61.07911,1.149135E+07,-2.07986E+07,
145,5,3,00:41:09,46.41589,3,0,-,4.142697E+07,-69.66109,1.439889E+07,-3.884412E+07,
147,5,5,00:41:17,21.54435,3,0,-,8.04121E+07,-75.79152,1.973725E+07,-7.795222E+07,
149,5,7,00:41:26,10,3,0,-,1.626697E+08,-77.50807,3.518583E+07,-1.588187E+08,
151,5,9,00:41:41,4.641589,3,0,-,3.271704E+08,-75.19622,8.359526E+07,-3.163104E+08,
153,5,11,00:42:06,2.154435,3,0,-,6.3194E+08,-68.96784,2.267983E+08,-5.898396E+08,
155,5,13,00:42:48,1,3,0,-,1.131584E+09,-58.80643,5.860828E+08,-9.679825E+08,
157,6,2,00:43:37,0.4641589,3,0,-,1.767983E+09,-46.57003,1.215431E+09,-1.283935E+09,
159,6,4,00:48:04,0.1,3,0,-,8.284741E+09,-40.65436,6.285249E+09,-5.39746E+09,
161,6,6,01:01:51,0.02154435,3,0,-,4.646085E+09,-35.55328,3.77994E+09,-2.701511E+09,
163,7,1,01:15:25,10000000,3,0,-,4490.892,-99.88931,-771.2922,-4424.163,
165,7,3,01:15:32,6812921,3,0,-,10479.54,-85.04438,905.2684,-10440.37,
167,7,5,01:15:42,4641589,3,0,-,18199.86,-87.30986,854.2084,-18179.81,
169,7,7,01:15:48,3162278,3,0,-,31981.67,-87.34055,1483.946,-31947.23,
171,7,9,01:15:55,2154435,3,0,-,57864.57,-90.09192,-92.83507,-57864.49,
173,7,11,01:16:01,1467799,3,0,-,88054.02,-90.3428,-526.8972,-88052.45,
175,7,13,01:16:08,1000000,3,0,-,134792.4,-87.66364,5494.976,-134680.3,
177,7,15,01:16:14,681292.1,3,0,-,198104.3,-86.52291,12014.97,-197739.6,
179,7,17,01:16:22,464158.9,3,0,-,289691.4,-85.15929,24445.96,-288658.1,
181,7,19,01:16:29,316227.8,3,0,-,422728.7,-83.21204,49964.69,-419765.5,
183,7,21,01:16:35,215443.5,3,0,-,613734.9,-80.55246,100741.4,-605410.3,
185,7,23,01:16:42,146779.9,3,0,-,888880.6,-76.28165,210797.6,-863523.7,
187,7,25,01:16:48,100000,3,0,-,1263216,-70.68294,417866.3,-1192100,
189,7,27,01:16:54,68129.21,3,0,-,1746382,-63.0791,790692.3,-1557131,
191,7,29,01:17:04,46415.89,3,0,-,2302510,-53.49152,1369860,-1850686,
193,7,31,01:17:10,31622.78,3,0,-,2853737,-42.74117,2095862,-1936796,
195,7,33,01:17:17,21544.35,3,0,-,3272590,-32.54602,2758662,-1760577,
197,7,35,01:17:23,14677.99,3,0,-,3504796,-24.07691,3199874,-1429825,
198,7,36,01:17:27,12115.28,3,0,-,3545826,-21.04092,3309405,-1273074,

File: V429_w48.csv
Exported SMaRT Impedance Data
Experiment start time : 3/7/2011 11:07:37 AM

Result Number,Sweep Number,Point Number,Time,Frequency (Hz),AC Level (V),DC Level (V),Temperature (K),Impedance Magnitude (Ohms),Impedance Phase Degrees ('),Impedance Real (Ohms),Impedance Imaginary (Ohms)
1,1,1,00:00:08,10000000,3,0,-,4536.207,-99.28561,-731.9451,-4476.765,
3,1,3,00:00:15,6812921,3,0,-,10517.1,-84.29018,1046.352,-10464.92,
5,1,5,00:00:24,4641589,3,0,-,18203.16,-86.56515,1090.622,-18170.46,
7,1,7,00:00:31,3162278,3,0,-,31902.31,-86.72181,1824.312,-31850.11,
9,1,9,00:00:38,2154435,3,0,-,57668.13,-89.66566,336.5266,-57667.15,
11,1,11,00:00:44,1467799,3,0,-,87835.27,-90.2186,-335.1173,-87834.63,
13,1,13,00:00:51,1000000,3,0,-,134452.1,-87.76113,5252.502,-134349.4,
15,1,15,00:00:57,681292.1,3,0,-,197946.9,-86.80373,11036.88,-197639,
17,1,17,00:01:05,464158.9,3,0,-,289791,-85.63895,22036.15,-288951.9,
19,1,19,00:01:11,316227.8,3,0,-,423202.7,-84.10384,43473.94,-420963.8,
21,1,21,00:01:18,215443.5,3,0,-,616875.9,-81.62868,89809.72,-610303.3,
23,1,23,00:01:24,146779.9,3,0,-,895828.1,-77.88466,188017,-875875.4,
25,1,25,00:01:31,100000,3,0,-,1281581,-72.92272,376351.1,-1225076,
27,1,27,00:01:37,68129.21,3,0,-,1791951,-66.02984,727999.8,-1637408,
29,1,29,00:01:46,46415.89,3,0,-,2410958,-57.1469,1307913,-2025359,
31,1,31,00:01:52,31622.78,3,0,-,3056466,-46.68778,2096655,-2223965,
33,1,33,00:01:59,21544.35,3,0,-,3607806,-36.15984,2912850,-2128749,
35,1,35,00:02:06,14677.99,3,0,-,3922057,-27.0886,3491821,-1785978,
37,1,37,00:02:13,10000,3,0,-,4084478,-20.69181,3821007,-1443214,
39,1,39,00:02:19,6812.92,3,0,-,4124939,-17.57629,3932369,-1245630,
41,1,41,00:02:26,4641.589,3,0,-,4134086,-18.06825,3930225,-1282185,
43,1,43,00:02:32,3162.278,3,0,-,4229495,-21.62779,3931730,-1558888,
45,1,45,00:02:39,2154.435,3,0,-,4511862,-28.20653,3976076,-2132536,
47,1,47,00:02:46,1467.799,3,0,-,5059833,-35.93138,4097050,-2969190,
49,1,49,00:02:53,1000,3,0,-,6078813,-43.36206,4419477,-4173750,
51,1,51,00:03:00,681.2921,3,0,-,7662609,-49.28757,4998037,-5808202,
53,1,53,00:03:07,464.1589,3,0,-,9904883,-53.03847,5955596,-7914391,
55,1,55,00:03:13,316.2278,3,0,-,1.280101E+07,-54.84059,7371505,-1.04655E+07,
57,1,57,00:03:22,215.4435,3,0,-,1.629575E+07,-55.85865,9145772,-1.348727E+07,
59,1,59,00:03:28,146.7799,3,0,-,2.048917E+07,-57.30152,1.106862E+07,-1.724215E+07,
61,1,61,00:03:35,100,3,0,-,2.57896E+07,-59.90538,1.293167E+07,-2.231312E+07,
63,2,2,00:03:45,68.1292,3,0,-,3.307084E+07,-63.6451,1.468115E+07,-2.96335E+07,
65,2,4,00:03:53,31.62278,3,0,-,5.95326E+07,-71.99616,1.840039E+07,-5.661764E+07,
67,2,6,00:04:01,14.67799,3,0,-,1.177561E+08,-77.24958,2.598935E+07,-1.148523E+08,
69,2,8,00:04:16,6.812921,3,0,-,2.396691E+08,-78.28149,4.867774E+07,-2.346737E+08,
71,2,10,00:04:31,3.162278,3,0,-,4.82606E+08,-75.69588,1.19237E+08,-4.676442E+08,
73,2,12,00:05:01,1.467799,3,0,-,9.416471E+08,-69.40292,3.31266E+08,-8.814545E+08,
75,3,1,00:05:46,1,3,0,-,1.270983E+09,-64.64601,5.442472E+08,-1.148561E+09,
77,3,3,00:06:58,0.2154435,3,0,-,3.126808E+09,-40.30761,2.384449E+09,-2.022704E+09,
79,3,5,00:14:09,0.04641589,3,0,-,5.801737E+09,-29.3588,5.0566E+09,-2.844458E+09,
81,3,7,00:43:38,0.01,3,0,-,1.919466E+11,19.98311,1.803901E+11,6.55964E+10,
83,4,2,00:43:52,8254042,3,0,-,4453.59,-68.89624,1603.552,-4154.887,
85,4,4,00:44:01,5623413,3,0,-,13713.46,-84.92521,1213.043,-13659.71,
87,4,6,00:44:08,3831187,3,0,-,24294.68,-86.4243,1515.2,-24247.39,
89,4,8,00:44:14,2610157,3,0,-,46612.61,-88.60336,1136.127,-46598.76,
91,4,10,00:44:21,1778280,3,0,-,71126.16,-90.08612,-106.9035,-71126.08,
93,4,12,00:44:27,1211528,3,0,-,110563.6,-87.76048,4320.53,-110479.2,
95,4,14,00:44:34,825404.2,3,0,-,163049,-87.1212,8188.94,-162843.2,
97,4,16,00:44:42,562341.3,3,0,-,239411,-86.06355,16435.64,-238846.2,
99,4,18,00:44:48,383118.7,3,0,-,350104.1,-84.59187,32997.25,-348545.6,
101,4,20,00:44:55,261015.7,3,0,-,510485.1,-82.4699,66897.7,-506082.7,
103,4,22,00:45:01,177828,3,0,-,741082.4,-79.35209,136932.4,-728321.8,
105,4,24,00:45:08,121152.8,3,0,-,1069759,-74.57941,284451.9,-1031247,
107,4,26,00:45:14,82540.42,3,0,-,1505876,-68.3911,554567.8,-1400041,
109,4,28,00:45:23,56234.13,3,0,-,2057095,-60.09098,1025718,-1783127,
111,4,30,00:45:30,38311.87,3,0,-,2660805,-50.03101,1709229,-2039220,
113,4,32,00:45:36,26101.57,3,0,-,3213533,-39.26181,2488118,-2033732,
115,4,34,00:45:43,17782.79,3,0,-,3581562,-29.52319,3116519,-1764907,
117,4,36,00:45:49,12115.28,3,0,-,3773154,-22.17054,3494185,-1423855,
119,4,38,00:45:56,8254.041,3,0,-,3822159,-18.00595,3634967,-1181489,
121,4,40,00:46:03,5623.413,3,0,-,3834337,-17.2925,3661024,-1139756,
123,4,42,00:46:10,3831.187,3,0,-,3871199,-20.10308,3635349,-1330570,
125,4,44,00:46:16,2610.157,3,0,-,4067137,-25.7424,3663498,-1766462,
127,4,46,00:46:23,1778.279,3,0,-,4469826,-33.05478,3746382,-2438024,
129,4,48,00:46:30,1211.528,3,0,-,5264661,-40.59366,3997686,-3425663,
131,4,50,00:46:37,825.4042,3,0,-,6536680,-47.04734,4454054,-4784306,
133,4,52,00:46:44,562.3413,3,0,-,8362337,-51.46225,5209990,-6541000,
135,4,54,00:46:51,383.1187,3,0,-,1.075986E+07,-53.65246,6377174,-8666386,
137,4,56,00:46:59,261.0157,3,0,-,1.368713E+07,-54.95747,7858935,-1.120601E+07,
139,4,58,00:47:06,177.8279,3,0,-,1.718906E+07,-56.49434,9488695,-1.433277E+07,
141,4,60,00:47:13,121.1528,3,0,-,2.159072E+07,-59.03972,1.110721E+07,-1.851456E+07,
143,5,1,00:47:22,100,3,0,-,2.431477E+07,-60.77639,1.187094E+07,-2.122E+07,
145,5,3,00:47:32,46.41589,3,0,-,4.203065E+07,-69.22195,1.491034E+07,-3.929704E+07,
147,5,5,00:47:40,21.54435,3,0,-,8.124898E+07,-75.607,2.019621E+07,-7.869886E+07,
149,5,7,00:47:49,10,3,0,-,1.64253E+08,-77.61698,3.522341E+07,-1.604317E+08,

File: V429_w50.csv
Exported SMaRT Impedance Data
Experiment start time : 3/7/2011 8:38:15 AM

Result Number,Sweep Number,Point Number,Time,Frequency (Hz),AC Level (V),DC Level (V),Temperature (K),Impedance Magnitude (Ohms),Impedance Phase Degrees ('),Impedance Real (Ohms),Impedance Imaginary (Ohms)
163,7,1,01:22:31,10000000,3,0,-,4531.071,-100.1425,-797.9067,-4460.263,
165,7,3,01:22:39,6812921,3,0,-,10576.5,-84.78081,962.1071,-10532.65,
167,7,5,01:22:49,4641589,3,0,-,18251.81,-87.1347,912.3815,-18229,
169,7,7,01:22:55,3162278,3,0,-,32006.13,-87.18647,1571.052,-31967.54,
171,7,9,01:23:02,2154435,3,0,-,57912.35,-90.15344,-155.11,-57912.14,
173,7,11,01:23:08,1467799,3,0,-,88124.74,-90.54105,-832.1952,-88120.81,
175,7,13,01:23:15,1000000,3,0,-,134747,-87.84301,5071.611,-134651.6,
177,7,15,01:23:21,681292.1,3,0,-,198369.7,-87.11349,9989.539,-198118,
179,7,17,01:23:29,464158.9,3,0,-,290252.2,-86.10587,19711.98,-289582.1,
181,7,19,01:23:35,316227.8,3,0,-,424188.3,-84.64886,39559.6,-422339.6,
183,7,21,01:23:42,215443.5,3,0,-,618672.3,-82.49393,80818.08,-613370.8,
185,7,23,01:23:48,146779.9,3,0,-,901442.3,-79.15521,169605.8,-885342.9,
187,7,25,01:23:55,100000,3,0,-,1294105,-74.64311,342719.1,-1247899,
189,7,27,01:24:01,68129.21,3,0,-,1827832,-68.34096,674621.3,-1698781,
191,7,29,01:24:10,46415.89,3,0,-,2492211,-60.05143,1244168,-2159435,
193,7,31,01:24:16,31622.78,3,0,-,3218923,-49.93613,2071832,-2463530,
195,7,33,01:24:23,21544.35,3,0,-,3876776,-39.11998,3007705,-2446037,
197,7,35,01:24:30,14677.99,3,0,-,4330973,-29.54609,3767770,-2135704,
199,7,37,01:24:36,10000,3,0,-,4549188,-22.40244,4205860,-1733740,
201,7,39,01:24:43,6812.92,3,0,-,4624267,-18.3371,4389456,-1454827,
203,7,41,01:24:50,4641.589,3,0,-,4637497,-17.84887,4414287,-1421426,
205,7,43,01:24:56,3162.278,3,0,-,4689337,-20.58194,4390018,-1648520,
207,7,45,01:25:03,2154.435,3,0,-,4946824,-26.60206,4423144,-2215144,
209,7,47,01:25:10,1467.799,3,0,-,5473020,-34.30607,4520926,-3084668,
211,7,49,01:25:17,1000,3,0,-,6477662,-42.05116,4809970,-4338698,
213,7,51,01:25:24,681.2921,3,0,-,8097299,-48.71576,5342558,-6084679,
215,7,53,01:25:30,464.1589,3,0,-,1.047925E+07,-53.25927,6268638,-8397552,
217,7,55,01:25:37,316.2278,3,0,-,1.369641E+07,-55.59884,7738249,-1.130093E+07,
219,7,57,01:25:45,215.4435,3,0,-,1.767465E+07,-56.48513,9759123,-1.473611E+07,
221,7,59,01:25:52,146.7799,3,0,-,2.239435E+07,-57.28471,1.210336E+07,-1.884185E+07,
223,7,61,01:25:59,100,3,0,-,2.816614E+07,-59.02641,1.449551E+07,-2.414978E+07,
225,8,2,01:26:09,68.1292,3,0,-,3.570294E+07,-62.10036,1.670628E+07,-3.155313E+07,
227,8,4,01:26:17,31.62278,3,0,-,6.229753E+07,-70.421,2.087631E+07,-5.86955E+07,
229,8,6,01:26:25,14.67799,3,0,-,1.212547E+08,-76.93708,2.740615E+07,-1.18117E+08,
231,8,8,01:26:39,6.812921,3,0,-,2.472088E+08,-79.37621,4.557534E+07,-2.429714E+08,
233,8,10,01:26:55,3.162278,3,0,-,5.040808E+08,-78.29298,1.022817E+08,-4.935948E+08,
235,8,12,01:27:25,1.467799,3,0,-,1.009467E+09,-73.88165,2.80251E+08,-9.697854E+08,
237,9,1,01:28:10,1,3,0,-,1.387101E+09,-69.97083,4.750803E+08,-1.303207E+09,
239,9,3,01:29:24,0.2154435,3,0,-,3.876924E+09,-46.97733,2.645178E+09,-2.834356E+09,
244,10,1,01:58:56,10000000,3,0,-,4548.514,-99.17514,-725.2747,-4490.318,
246,10,3,01:59:04,6812921,3,0,-,10538.12,-83.93902,1112.691,-10479.21,
248,10,5,01:59:13,4641589,3,0,-,18189.6,-86.34744,1158.792,-18152.65,
250,10,7,01:59:20,3162278,3,0,-,31868.08,-86.54851,1918.58,-31810.28,
252,10,9,01:59:26,2154435,3,0,-,57626.21,-89.60796,394.3144,-57624.87,
254,10,11,01:59:32,1467799,3,0,-,87681.3,-90.20877,-319.5425,-87680.72,
256,10,13,01:59:39,1000000,3,0,-,134197.1,-87.70727,5368.605,-134089.7,
258,10,15,01:59:46,681292.1,3,0,-,197791,-86.80314,11030.25,-197483.2,
260,10,17,01:59:54,464158.9,3,0,-,289841.2,-85.69868,21738.71,-289024.8,
262,10,19,02:00:00,316227.8,3,0,-,423228.8,-84.13562,43243.18,-421013.8,
264,10,21,02:00:06,215443.5,3,0,-,616903.4,-81.68783,89183.66,-610422.9,
266,10,23,02:00:13,146779.9,3,0,-,897106.9,-77.99609,186579.3,-877490.1,
268,10,25,02:00:19,100000,3,0,-,1282211,-73.0019,374842,-1226197,
270,10,27,02:00:26,68129.21,3,0,-,1794394,-66.15816,725318.1,-1641268,
272,10,29,02:00:35,46415.89,3,0,-,2418280,-57.31013,1306093,-2035240,
274,10,31,02:00:41,31622.78,3,0,-,3063876,-46.87704,2094363,-2236287,
276,10,33,02:00:48,21544.35,3,0,-,3620895,-36.30507,2917993,-2143876,
278,10,35,02:00:55,14677.99,3,0,-,3979826,-27.15422,3541175,-1816341,
280,10,37,02:01:02,10000,3,0,-,4113358,-20.83613,3844351,-1463106,
282,10,39,02:01:08,6812.92,3,0,-,4141007,-17.59982,3947173,-1252103,
284,10,41,02:01:15,4641.589,3,0,-,4160042,-17.94408,3957688,-1281661,
286,10,43,02:01:22,3162.278,3,0,-,4263273,-21.753,3959686,-1579995,
288,10,45,02:01:28,2154.435,3,0,-,4535478,-28.10957,4000510,-2136932,
290,10,47,02:01:35,1467.799,3,0,-,5084825,-35.90509,4118655,-2981966,
292,10,49,02:01:42,1000,3,0,-,6103521,-43.32239,4440341,-4187642,
294,10,51,02:01:49,681.2921,3,0,-,7691435,-49.28813,5016781,-5830101,
296,10,53,02:01:56,464.1589,3,0,-,9944865,-53.04564,5978643,-7947086,
298,10,55,02:02:03,316.2278,3,0,-,1.286022E+07,-54.89311,7395962,-1.052069E+07,
300,10,57,02:02:11,215.4435,3,0,-,1.638763E+07,-55.89936,9187701,-1.356984E+07,
302,10,59,02:02:18,146.7799,3,0,-,2.061368E+07,-57.30061,1.113616E+07,-1.734675E+07,
304,10,61,02:02:25,100,3,0,-,2.594355E+07,-59.83797,1.303527E+07,-2.2431E+07,
306,11,2,02:02:35,68.1292,3,0,-,3.324207E+07,-63.54052,1.48115E+07,-2.975995E+07,
308,11,4,02:02:43,31.62278,3,0,-,5.972753E+07,-71.85131,1.860419E+07,-5.675616E+07,
310,11,6,02:02:51,14.67799,3,0,-,1.179586E+08,-77.13137,2.627135E+07,-1.149958E+08,
312,11,8,02:03:05,6.812921,3,0,-,2.399161E+08,-78.19307,4.909039E+07,-2.348401E+08,
314,11,10,02:03:21,3.162278,3,0,-,4.829027E+08,-75.59733,1.20115E+08,-4.677257E+08,
316,11,12,02:03:51,1.467799,3,0,-,9.423388E+08,-69.20388,3.345716E+08,-8.80945E+08,
318,12,1,02:04:36,1,3,0,-,1.270331E+09,-64.42915,5.48309E+08,-1.145905E+09,
320,12,3,02:05:49,0.2154435,3,0,-,3.089027E+09,-41.65669,2.307939E+09,-2.05317E+09,
321,12,4,02:08:38,0.1,3,0,-,8.427724E+09,-35.15299,6.890656E+09,-4.85236E+09,