Folder: dielectric_spectroscopy_gui/data_example/1_solartron_output

Note: data_example/1_solartron_output/V429_w48.txt
V429_w48,3L_10M_1m_8_Vpd,8.248,35,20,1,1,3,10000000,100,12,1,100,1,6,1,1,0.01,3,1

DESCRIBED BELOW IN COLUMN FORMAT, BUT TYPE IN ROW AS ABOVE.

DATA FILENAME (STRING, DO NOT INCLUDE PATH),
OPEN/SHORT FILENAME (STRING, DO NOT INCLUDE PATH),
SAMPLE THICKNESS (MM),
SAMPLE DIAMETER (MM),
LOWER ELECTRODE DIAMETER (MM),
NUMBER OF FILES, NUMBER OF "TOTAL" FILES (USUALLY 1),
NUMBER OF FREQ. LOOPS (USUALLY 3),

THEN FOR EACH LOOP:

START FREQ. (HZ),
END FREQ. (HZ),
NUM OF PTS. PER DECADE, 
STACK

Note: README.md
dielectric_spectroscopy_gui
=======

MATLAB scripts/functions/GUIs for reading, homogenizing and analyzing dielectric spectroscopy data collected by the Solartron platform. Optimized for analyzing ice-rich materials, but potentially adjustable to other materials.

If the format of the data input into inv_cole_gui.m (determined by load_solartron_gui.m and merge_solartron_gui.m), then inv_cole_gui.m may be used to invert dielectric spectroscopy for multiple (up to 4) Cole-Cole relaxations and DC conductivity simultaneously, with confidence bounds for each model parameter.

Manual forthcoming.

File: V429_f85.csv
Exported SMaRT Impedance Data
Experiment start time : 3/6/2011 8:36:09 PM

Result Number,Sweep Number,Point Number,Time,Frequency (Hz),AC Level (V),DC Level (V),Temperature (K),Impedance Magnitude (Ohms),Impedance Phase Degrees ('),Impedance Real (Ohms),Impedance Imaginary (Ohms)
1,1,1,00:00:08,10000000,3,0,-,6608.88,-83.87502,705.1544,-6571.153,
6,1,6,00:00:27,3831187,3,0,-,24255.61,-85.63073,1847.905,-24185.12,
11,1,11,00:00:44,1467799,3,0,-,87833.15,-90.80173,-1229.029,-87824.55,
16,1,16,00:01:01,562341.3,3,0,-,241270,-89.10387,3773.478,-241240.5,
21,1,21,00:01:17,215443.5,3,0,-,630108.8,-88.98257,11188.72,-630009.4,
26,1,26,00:01:33,82540.42,3,0,-,1645280,-87.6032,68805.82,-1643840,
31,1,31,00:01:52,31622.78,3,0,-,4272741,-84.31107,423547,-4251696,
36,1,36,00:02:08,12115.28,3,0,-,1.0849E+07,-75.54687,2707783,-1.050565E+07,
41,1,41,00:02:24,4641.589,3,0,-,2.422162E+07,-56.46272,1.338195E+07,-2.018936E+07,
46,1,46,00:02:41,1778.279,3,0,-,3.731047E+07,-31.14993,3.193093E+07,-1.929993E+07,
51,1,51,00:02:58,681.2921,3,0,-,4.048437E+07,-18.93015,3.829476E+07,-1.313375E+07,
56,1,56,00:03:17,261.0157,3,0,-,4.334078E+07,-28.07711,3.824022E+07,-2.039874E+07,
61,1,61,00:03:35,100,3,0,-,6.291444E+07,-49.70833,4.068544E+07,-4.798876E+07,
66,2,5,00:03:56,21.54435,3,0,-,2.116338E+08,-68.12105,7.886471E+07,-1.963904E+08,
71,2,10,00:04:33,3.162278,3,0,-,8.536335E+08,-70.47173,2.85346E+08,-8.045295E+08,
76,3,2,00:06:13,0.4641589,3,0,-,4.652035E+09,-85.97388,3.266264E+08,-4.640554E+09,
81,4,3,00:08:54,6812921,3,0,-,5456.829,-72.55825,1635.61,-5205.936,
86,4,8,00:09:13,2610157,3,0,-,46524.34,-88.32742,1357.964,-46504.51,
91,4,13,00:09:29,1000000,3,0,-,134844.5,-89.0122,2324.695,-134824.5,
96,4,18,00:09:46,383118.7,3,0,-,354376,-89.1181,5454.465,-354334,
101,4,23,00:10:03,146779.9,3,0,-,927851.3,-88.41703,25631.8,-927497.2,
106,4,28,00:10:21,56234.13,3,0,-,2412453,-86.57625,144072.8,-2408147,
111,4,33,00:10:37,21544.35,3,0,-,6234211,-81.53606,917595.6,-6166312,
116,4,38,00:10:53,8254.041,3,0,-,1.531949E+07,-68.97929,5495188,-1.429999E+07,
121,4,43,00:11:10,3162.278,3,0,-,3.006516E+07,-45.38542,2.111579E+07,-2.14018E+07,
126,4,48,00:11:27,1211.528,3,0,-,3.870401E+07,-23.52109,3.548822E+07,-1.544625E+07,
131,4,53,00:11:45,464.1589,3,0,-,3.98927E+07,-20.22019,3.743417E+07,-1.378807E+07,
136,4,58,00:12:05,177.8279,3,0,-,4.693083E+07,-36.78999,3.75839E+07,-2.810611E+07,
141,5,2,00:12:26,68.1292,3,0,-,8.088429E+07,-57.88876,4.299526E+07,-6.851041E+07,
146,5,7,00:12:49,10,3,0,-,3.807206E+08,-66.40874,1.52368E+08,-3.489014E+08,
151,5,12,00:13:47,1.467799,3,0,-,1.589951E+09,-78.24959,3.237921E+08,-1.556632E+09,
156,6,4,00:17:18,0.1,3,0,-,2.168761E+10,-80.51174,3.575112E+09,-2.139091E+10,
161,7,5,00:17:45,4641589,3,0,-,18187.31,-85.43974,1446.036,-18129.74,
166,7,10,00:18:01,1778280,3,0,-,71151.4,-90.39792,-494.1641,-71149.68,
171,7,15,00:18:17,681292.1,3,0,-,199021.2,-89.07815,3202.039,-198995.4,
176,7,20,00:18:35,261015.7,3,0,-,520314.5,-89.05798,8554.482,-520244.2,
181,7,25,00:18:51,100000,3,0,-,1358461,-87.89733,49842.68,-1357547,
186,7,30,00:19:09,38311.87,3,0,-,3533084,-85.12516,300240.3,-3520303,
191,7,35,00:19:25,14677.99,3,0,-,9056155,-77.65172,1936694,-8846647,
196,7,40,00:19:42,5623.413,3,0,-,2.089115E+07,-60.58149,1.026143E+07,-1.819734E+07,
201,7,45,00:19:58,2154.435,3,0,-,3.475513E+07,-35.09722,2.843587E+07,-1.9983E+07,
206,7,50,00:20:16,825.4042,3,0,-,3.928255E+07,-19.46049,3.70384E+07,-1.308724E+07,
211,7,55,00:20:33,316.2278,3,0,-,4.100997E+07,-25.04263,3.715475E+07,-1.735921E+07,
216,7,60,00:20:52,121.1528,3,0,-,5.567584E+07,-45.90216,3.874402E+07,-3.998374E+07,
221,8,4,00:21:13,31.62278,3,0,-,1.51626E+08,-66.89527,5.950004E+07,-1.394639E+08,
226,8,9,00:21:41,4.641589,3,0,-,6.382914E+08,-67.74483,2.417416E+08,-5.907427E+08,
231,9,1,00:23:01,1,3,0,-,2.26035E+09,-81.32515,3.409221E+08,-2.234492E+09,
236,10,2,00:26:29,8254042,3,0,-,4486.732,-67.16181,1741.436,-4134.993,
241,10,7,00:26:48,3162278,3,0,-,31797.98,-85.9571,2241.874,-31718.85,
246,10,12,00:27:04,1211528,3,0,-,110653.1,-88.81319,2291.911,-110629.4,
251,10,17,00:27:23,464158.9,3,0,-,292293.1,-89.14359,4368.923,-292260.4,
256,10,22,00:27:38,177828,3,0,-,763367.7,-88.77771,16283.87,-763194,
261,10,27,00:27:55,68129.21,3,0,-,1993567,-87.0852,101375.6,-1990988,
266,10,32,00:28:13,26101.57,3,0,-,5164412,-82.96222,632764.9,-5125501,
271,10,37,00:28:29,10000,3,0,-,1.292909E+07,-72.2883,3933389,-1.231624E+07,
276,10,42,00:28:46,3831.187,3,0,-,2.707162E+07,-50.61613,1.71773E+07,-2.092399E+07,
281,10,47,00:29:03,1467.799,3,0,-,3.77791E+07,-26.7103,3.374771E+07,-1.698093E+07,
286,10,52,00:29:20,562.3413,3,0,-,3.951724E+07,-19.09133,3.734373E+07,-1.292509E+07,
291,10,57,00:29:39,215.4435,3,0,-,4.439233E+07,-32.51316,3.743464E+07,-2.386058E+07,
296,11,1,00:29:59,100,3,0,-,6.224958E+07,-50.20733,3.984045E+07,-4.783042E+07,
301,11,6,00:30:21,14.67799,3,0,-,2.865423E+08,-67.38805,1.101721E+08,-2.645158E+08,
306,11,11,00:31:04,2.154435,3,0,-,1.143958E+09,-74.55183,3.047122E+08,-1.102628E+09,
311,12,3,00:33:51,0.2154435,3,0,-,9.830665E+09,-87.52559,4.244247E+08,-9.821499E+09,
316,13,4,00:35:37,5623413,3,0,-,13742.3,-83.64545,1521.008,-13657.87,
321,13,9,00:35:53,2154435,3,0,-,57586.28,-89.58479,417.3288,-57584.77,
326,13,14,00:36:10,825404.2,3,0,-,163797.1,-89.01411,2818.353,-163772.9,
331,13,19,00:36:27,316227.8,3,0,-,429476.8,-89.0367,7220.479,-429416.1,
336,13,24,00:36:43,121152.8,3,0,-,1145676,-87.60868,47802.84,-1144678,
341,13,29,00:37:02,46415.89,3,0,-,2922495,-85.91001,208442.6,-2915052,
346,13,34,00:37:18,17782.79,3,0,-,7506651,-79.75028,1335726,-7386856,
351,13,39,00:37:34,6812.92,3,0,-,1.797547E+07,-64.9985,7597192,-1.62911E+07,
356,13,44,00:37:51,2610.157,3,0,-,3.263873E+07,-40.08217,2.497261E+07,-2.10156E+07,
361,13,49,00:38:08,1000,3,0,-,3.909512E+07,-21.0431,3.648789E+07,-1.403789E+07,
366,13,54,00:38:26,383.1187,3,0,-,4.02348E+07,-22.23782,3.724218E+07,-1.522693E+07,
371,13,59,00:38:45,146.7799,3,0,-,5.067774E+07,-41.34333,3.804707E+07,-3.347617E+07,
376,14,3,00:39:06,46.41589,3,0,-,1.095457E+08,-63.57213,4.875561E+07,-9.809762E+07,
381,14,8,00:39:31,6.812921,3,0,-,4.937188E+08,-66.24256,1.989024E+08,-4.518806E+08,
386,14,13,00:40:42,1,3,0,-,2.263231E+09,-81.37218,3.395202E+08,-2.237619E+09,
391,16,1,00:44:04,10000000,3,0,-,6626.837,-83.72694,724.0967,-6587.159,
396,16,6,00:44:23,3831187,3,0,-,24239,-85.5183,1894.058,-24164.88,
401,16,11,00:44:39,1467799,3,0,-,87779.56,-90.78247,-1198.763,-87771.38,
406,16,16,00:44:57,562341.3,3,0,-,241166.9,-89.10864,3751.811,-241137.7,
411,16,21,00:45:13,215443.5,3,0,-,630021.4,-88.91965,11878.9,-629909.4,
416,16,26,00:45:29,82540.42,3,0,-,1644725,-87.53654,70694.55,-1643205,
421,16,31,00:45:48,31622.78,3,0,-,4270321,-84.11765,437649.7,-4247835,
426,16,36,00:46:04,12115.28,3,0,-,1.081533E+07,-75.07048,2786364,-1.045024E+07,
431,16,41,00:46:20,4641.589,3,0,-,2.395433E+07,-55.4868,1.357243E+07,-1.973826E+07,
436,16,46,00:46:37,1778.279,3,0,-,3.620011E+07,-30.27625,3.126258E+07,-1.8251E+07,
441,16,51,00:46:55,681.2921,3,0,-,3.881192E+07,-18.80161,3.674092E+07,-1.250878E+07,
446,16,56,00:47:14,261.0157,3,0,-,4.1704E+07,-28.76604,3.65574E+07,-2.006939E+07,
451,16,61,00:47:31,100,3,0,-,6.145396E+07,-50.54163,3.905507E+07,-4.744777E+07,
456,17,5,00:47:53,21.54435,3,0,-,2.074243E+08,-67.60214,7.903611E+07,-1.917762E+08,
461,17,10,00:48:30,3.162278,3,0,-,8.150666E+08,-70.85278,2.673392E+08,-7.699761E+08,
466,18,2,00:50:24,0.4641589,3,0,-,4.532967E+09,-86.07099,3.106022E+08,-4.522313E+09,
471,19,3,00:53:23,6812921,3,0,-,5453.536,-72.42367,1646.839,-5198.939,
476,19,8,00:53:42,2610157,3,0,-,46532.68,-88.31641,1367.145,-46512.59,
481,19,13,00:53:58,1000000,3,0,-,134787.9,-88.94252,2487.615,-134764.9,
486,19,18,00:54:16,383118.7,3,0,-,354321.1,-89.02216,6046.831,-354269.5,
491,19,23,00:54:32,146779.9,3,0,-,926830.1,-88.24293,28418.71,-926394.3,
496,19,28,00:54:50,56234.13,3,0,-,2404321,-86.21757,158609,-2399084,
501,19,33,00:55:06,21544.35,3,0,-,6212669,-80.57375,1017499,-6128780,
506,19,38,00:55:23,8254.041,3,0,-,1.50629E+07,-66.7842,5937729,-1.384321E+07,
511,19,43,00:55:39,3162.278,3,0,-,2.816389E+07,-42.36324,2.080996E+07,-1.897763E+07,
516,19,48,00:55:56,1211.528,3,0,-,3.485956E+07,-21.89576,3.234493E+07,-1.299979E+07,
521,19,53,00:56:14,464.1589,3,0,-,3.580998E+07,-21.21046,3.338414E+07,-1.295586E+07,
526,19,58,00:56:33,177.8279,3,0,-,4.36907E+07,-39.25722,3.383027E+07,-2.764759E+07,
531,20,2,00:56:54,68.1292,3,0,-,7.841239E+07,-59.49209,3.980664E+07,-6.75569E+07,
536,20,7,00:57:17,10,3,0,-,3.603417E+08,-65.67003,1.484576E+08,-3.283389E+08,
541,20,12,00:58:15,1.467799,3,0,-,1.5392E+09,-79.28338,2.862172E+08,-1.512355E+09,
546,21,4,01:02:05,0.1,3,0,-,2.278355E+10,-90.67953,-2.702126E+08,-2.278194E+10,
551,22,5,01:02:31,4641589,3,0,-,18189.54,-85.32529,1482.427,-18129.03,
556,22,10,01:02:47,1778280,3,0,-,71074.06,-90.35944,-445.8651,-71072.66,
561,22,15,01:03:04,681292.1,3,0,-,198795.7,-89.07488,3209.763,-198769.7,
566,22,20,01:03:25,261015.7,3,0,-,519321.9,-88.94133,9595.291,-519233.3,

File: V429_w40.csv
Exported SMaRT Impedance Data
Experiment start time : 3/7/2011 2:21:34 PM

Result Number,Sweep Number,Point Number,Time,Frequency (Hz),AC Level (V),DC Level (V),Temperature (K),Impedance Magnitude (Ohms),Impedance Phase Degrees ('),Impedance Real (Ohms),Impedance Imaginary (Ohms)
1,1,1,00:00:08,10000000,3,0,-,4493.348,-99.72052,-758.6697,-4428.836,
3,1,3,00:00:15,6812921,3,0,-,10486.95,-84.7844,953.3065,-10443.53,
5,1,5,00:00:24,4641589,3,0,-,18213.96,-87.15614,903.6794,-18191.53,
7,1,7,00:00:31,3162278,3,0,-,31901.82,-87.04913,1642.303,-31859.52,
9,1,9,00:00:37,2154435,3,0,-,57780.52,-89.91358,87.17272,-57780.46,
11,1,11,00:00:44,1467799,3,0,-,87847.25,-90.08813,-135.1432,-87847.15,
13,1,13,00:00:50,1000000,3,0,-,134606.8,-87.26288,6428.001,-134453.3,
15,1,15,00:00:57,681292.1,3,0,-,197717.4,-85.96945,13897.29,-197228.3,
17,1,17,00:01:05,464158.9,3,0,-,288821.3,-84.4319,28024.06,-287458.5,
19,1,19,00:01:11,316227.8,3,0,-,421180.6,-82.23989,56870.34,-417323.4,
21,1,21,00:01:18,215443.5,3,0,-,610396.2,-79.11521,115264.2,-599414.4,
23,1,23,00:01:24,146779.9,3,0,-,880125.4,-74.25634,238808.2,-847107.7,
25,1,25,00:01:31,100000,3,0,-,1238792,-67.90273,466009.3,-1147799,
27,1,27,00:01:37,68129.21,3,0,-,1685532,-59.49658,855559.3,-1452252,
29,1,29,00:01:46,46415.89,3,0,-,2173188,-49.42632,1413497,-1650688,
31,1,31,00:01:52,31622.78,3,0,-,2616646,-38.62172,2044344,-1633247,
33,1,33,00:01:59,21544.35,3,0,-,2906184,-28.80571,2546569,-1400318,
35,1,35,00:02:06,14677.99,3,0,-,3055975,-21.63351,2840716,-1126641,
37,1,37,00:02:13,10000,3,0,-,3089379,-17.24838,2950445,-916045.4,
39,1,39,00:02:19,6812.92,3,0,-,3104366,-16.62128,2974655,-887985.8,
41,1,41,00:02:26,4641.589,3,0,-,3131039,-19.22913,2956355,-1031197,
43,1,43,00:02:33,3162.278,3,0,-,3273059,-24.45198,2979493,-1354819,
45,1,45,00:02:39,2154.435,3,0,-,3584080,-31.60083,3052630,-1878051,
47,1,47,00:02:46,1467.799,3,0,-,4193404,-38.80543,3267830,-2627912,
49,1,49,00:02:53,1000,3,0,-,5147768,-44.75594,3655494,-3624482,
51,1,51,00:03:00,681.2921,3,0,-,6484122,-48.85978,4265931,-4883203,
53,1,53,00:03:07,464.1589,3,0,-,8194714,-51.38206,5114521,-6402735,
55,1,55,00:03:14,316.2278,3,0,-,1.027035E+07,-53.35735,6129574,-8240652,
57,1,57,00:03:23,215.4435,3,0,-,1.282247E+07,-55.83403,7200999,-1.060949E+07,
59,1,59,00:03:29,146.7799,3,0,-,1.616502E+07,-59.1966,8278010,-1.388461E+07,
61,1,61,00:03:36,100,3,0,-,2.087786E+07,-63.34274,9366909,-1.865867E+07,
63,2,2,00:03:46,68.1292,3,0,-,2.781979E+07,-67.51481,1.063954E+07,-2.570488E+07,
65,2,4,00:03:54,31.62278,3,0,-,5.319446E+07,-73.27473,1.530847E+07,-5.09441E+07,
67,2,6,00:04:03,14.67799,3,0,-,1.057002E+08,-74.03564,2.907175E+07,-1.016237E+08,
69,2,8,00:04:17,6.812921,3,0,-,2.062463E+08,-70.00952,7.050821E+07,-1.938198E+08,
71,2,10,00:04:33,3.162278,3,0,-,3.7698E+08,-61.48293,1.799781E+08,-3.312428E+08,
73,2,12,00:05:04,1.467799,3,0,-,6.140751E+08,-50.37158,3.916609E+08,-4.729587E+08,
75,3,1,00:05:41,1,3,0,-,7.487474E+08,-45.15184,5.280395E+08,-5.308455E+08,
77,3,3,00:06:54,0.2154435,3,0,-,1.324059E+09,-29.7393,1.149669E+09,-6.568051E+08,
82,4,1,00:46:18,10000000,3,0,-,4497.192,-99.6308,-752.3764,-4433.809,
84,4,3,00:46:25,6812921,3,0,-,10491.26,-84.77627,955.1802,-10447.69,
86,4,5,00:46:34,4641589,3,0,-,18191.88,-87.14841,905.0346,-18169.35,
88,4,7,00:46:41,3162278,3,0,-,31903.7,-87.01054,1663.863,-31860.28,
90,4,9,00:46:47,2154435,3,0,-,57736.65,-89.76283,239.0116,-57736.15,
92,4,11,00:46:54,1467799,3,0,-,87812.12,-90.10764,-165.0106,-87811.96,
94,4,13,00:47:00,1000000,3,0,-,134570.4,-87.08234,6849.798,-134396,
96,4,15,00:47:07,681292.1,3,0,-,197551.4,-85.92239,14047.51,-197051.4,
98,4,17,00:47:15,464158.9,3,0,-,288696.8,-84.31113,28617.55,-287274.9,
100,4,19,00:47:21,316227.8,3,0,-,420553.5,-82.07484,57985.82,-416536.8,
102,4,21,00:47:28,215443.5,3,0,-,609827.7,-78.81353,118308.4,-598241.5,
104,4,23,00:47:34,146779.9,3,0,-,877872.9,-73.91572,243215.8,-843508.7,
106,4,25,00:47:41,100000,3,0,-,1234179,-67.46627,472971.1,-1139954,
108,4,27,00:47:47,68129.21,3,0,-,1673647,-58.9885,862279.8,-1434422,
110,4,29,00:47:56,46415.89,3,0,-,2151885,-48.82367,1416755,-1619696,
112,4,31,00:48:03,31622.78,3,0,-,2580162,-38.01639,2032741,-1589088,
114,4,33,00:48:09,21544.35,3,0,-,2873893,-28.25418,2531486,-1360455,
116,4,35,00:48:16,14677.99,3,0,-,3009230,-21.12254,2807045,-1084418,
118,4,37,00:48:23,10000,3,0,-,3025596,-17.0914,2891977,-889212.8,
120,4,39,00:48:30,6812.92,3,0,-,3031118,-16.44368,2907141,-858026.6,
122,4,41,00:48:36,4641.589,3,0,-,3068688,-19.23657,2897352,-1011039,
124,4,43,00:48:43,3162.278,3,0,-,3217358,-24.67092,2923678,-1342944,
126,4,45,00:48:50,2154.435,3,0,-,3523251,-31.68101,2998235,-1850375,
128,4,47,00:48:56,1467.799,3,0,-,4129288,-38.80243,3218002,-2587564,
130,4,49,00:49:03,1000,3,0,-,5062246,-44.65223,3601210,-3557755,
132,4,51,00:49:10,681.2921,3,0,-,6365228,-48.66202,4204231,-4779181,
134,4,53,00:49:17,464.1589,3,0,-,8026375,-51.19163,5030273,-6254523,
136,4,55,00:49:24,316.2278,3,0,-,1.0039E+07,-53.19653,6014089,-8038180,
138,4,57,00:49:33,215.4435,3,0,-,1.251873E+07,-55.8979,7018871,-1.036601E+07,
140,4,59,00:49:39,146.7799,3,0,-,1.580527E+07,-59.44973,8033732,-1.361124E+07,
142,4,61,00:49:46,100,3,0,-,2.046126E+07,-63.7183,9059938,-1.834613E+07,
144,5,2,00:49:56,68.1292,3,0,-,2.733233E+07,-67.97343,1.025063E+07,-2.533734E+07,
146,5,4,00:50:04,31.62278,3,0,-,5.249931E+07,-73.78508,1.465998E+07,-5.041094E+07,
148,5,6,00:50:13,14.67799,3,0,-,1.045755E+08,-74.68906,2.761393E+07,-1.008638E+08,
150,5,8,00:50:28,6.812921,3,0,-,2.048276E+08,-71.05624,6.649528E+07,-1.937336E+08,
152,5,10,00:50:47,3.162278,3,0,-,3.784796E+08,-63.14442,1.709757E+08,-3.376598E+08,
154,5,12,00:51:19,1.467799,3,0,-,6.302003E+08,-52.17419,3.864786E+08,-4.977818E+08,
156,6,1,00:51:55,1,3,0,-,7.740762E+08,-46.42429,5.335804E+08,-5.607904E+08,
158,6,3,00:53:08,0.2154435,3,0,-,1.338966E+09,-30.6799,1.151553E+09,-6.831956E+08,
160,6,5,00:59:36,0.04641589,3,0,-,2.005787E+09,-28.95083,1.755135E+09,-9.709188E+08,
161,6,6,01:05:51,0.02154435,3,0,-,2.948231E+10,106.4015,-8.324826E+09,2.828257E+10,

File: V429_w43.csv
Exported SMaRT Impedance Data
Experiment start time : 3/7/2011 1:16:29 PM

Result Number,Sweep Number,Point Number,Time,Frequency (Hz),AC Level (V),DC Level (V),Temperature (K),Impedance Magnitude (Ohms),Impedance Phase Degrees ('),Impedance Real (Ohms),Impedance Imaginary (Ohms)
1,1,1,00:00:08,10000000,3,0,-,4495.226,-99.81781,-766.5083,-4429.393,
6,1,6,00:00:28,3831187,3,0,-,24299.27,-87.10312,1228.059,-24268.21,
11,1,11,00:00:44,1467799,3,0,-,88004.24,-90.29721,-456.5487,-88003.05,
16,1,16,00:01:02,562341.3,3,0,-,239526.9,-85.80431,17524.64,-238885,
21,1,21,00:01:18,215443.5,3,0,-,613982.6,-80.34462,102978.4,-605285.1,
26,1,26,00:01:34,82540.42,3,0,-,1488428,-66.80056,586340.9,-1368072,
31,1,31,00:01:53,31622.78,3,0,-,2827811,-42.296,2091670,-1903006,
36,1,36,00:02:10,12115.28,3,0,-,3497431,-20.82646,3268915,-1243472,
41,1,41,00:02:26,4641.589,3,0,-,3555027,-18.56965,3369943,-1132124,
46,1,46,00:02:43,1778.279,3,0,-,4218467,-34.00414,3497097,-2359189,
51,1,51,00:03:00,681.2921,3,0,-,7036667,-49.33514,4585328,-5337551,
56,1,56,00:03:19,261.0157,3,0,-,1.280966E+07,-54.62971,7414983,-1.044536E+07,
61,1,61,00:03:36,100,3,0,-,2.284771E+07,-61.8388,1.078307E+07,-2.014307E+07,
66,2,5,00:03:58,21.54435,3,0,-,7.912642E+07,-75.81488,1.939038E+07,-7.671377E+07,
71,2,10,00:04:31,3.162278,3,0,-,4.409871E+08,-70.05258,1.504462E+08,-4.145305E+08,
76,3,2,00:06:19,0.4641589,3,0,-,1.517072E+09,-42.24074,1.123129E+09,-1.019847E+09,
81,4,3,00:09:00,6812921,3,0,-,10506.82,-84.64542,980.4901,-10460.97,
86,4,8,00:09:19,2610157,3,0,-,46718.29,-89.09484,738.0408,-46712.46,
91,4,13,00:09:36,1000000,3,0,-,134490.6,-87.44957,5984.69,-134357.4,
96,4,18,00:09:53,383118.7,3,0,-,349238.5,-84.02739,36339.42,-347342.8,
101,4,23,00:10:09,146779.9,3,0,-,886620.8,-75.65533,219664.6,-858978.4,
106,4,28,00:10:28,56234.13,3,0,-,1995054,-57.27687,1078486,-1678424,
111,4,33,00:10:44,21544.35,3,0,-,3150874,-31.30137,2692253,-1637003,
116,4,38,00:11:02,8254.041,3,0,-,3425070,-17.13321,3273073,-1009006,
121,4,43,00:11:18,3162.278,3,0,-,3583142,-23.6634,3281869,-1438140,
126,4,48,00:11:35,1211.528,3,0,-,4921753,-41.43663,3689780,-3257173,
131,4,53,00:11:53,464.1589,3,0,-,8829336,-51.97725,5438646,-6955452,
136,4,58,00:12:11,177.8279,3,0,-,1.565177E+07,-56.81817,8566180,-1.309955E+07,
141,5,2,00:12:32,68.1292,3,0,-,2.94469E+07,-66.53298,1.172638E+07,-2.701133E+07,
146,5,7,00:12:53,10,3,0,-,1.576884E+08,-75.8644,3.851032E+07,-1.529136E+08,
151,5,12,00:13:46,1.467799,3,0,-,7.576503E+08,-57.88316,4.02803E+08,-6.417037E+08,
156,6,4,00:17:46,0.1,3,0,-,1.684671E+09,-24.13044,1.537459E+09,-6.887191E+08,
161,7,5,00:18:13,4641589,3,0,-,18214.96,-87.07626,929.0909,-18191.25,
166,7,10,00:18:29,1778280,3,0,-,71350.1,-90.24179,-301.111,-71349.47,
171,7,15,00:18:45,681292.1,3,0,-,197770.6,-86.25434,12919.94,-197348.1,
176,7,20,00:19:03,261015.7,3,0,-,508735.4,-81.53975,74846.95,-503199.4,
181,7,25,00:19:19,100000,3,0,-,1253275,-69.5321,438248.8,-1174154,
186,7,30,00:19:38,38311.87,3,0,-,2514187,-46.46825,1731663,-1822767,
191,7,35,00:19:54,14677.99,3,0,-,3305939,-23.00912,3042928,-1292217,
196,7,40,00:20:11,5623.413,3,0,-,3385185,-17.35066,3231151,-1009526,
201,7,45,00:20:28,2154.435,3,0,-,3831212,-30.73744,3292998,-1958150,
206,7,50,00:20:45,825.4042,3,0,-,6086112,-47.22562,4133159,-4467410,
211,7,55,00:21:03,316.2278,3,0,-,1.10506E+07,-53.6454,6550585,-8899750,
216,7,60,00:21:21,121.1528,3,0,-,1.956734E+07,-60.26569,9704989,-1.6991E+07,
221,8,4,00:21:43,31.62278,3,0,-,5.522989E+07,-73.62677,1.556895E+07,-5.299008E+07,
226,8,9,00:22:11,4.641589,3,0,-,3.080054E+08,-71.12991,9.961624E+07,-2.914514E+08,
231,9,1,00:23:36,1,3,0,-,9.358308E+08,-50.8632,5.906723E+08,-7.258688E+08,
236,10,2,00:27:04,8254042,3,0,-,4449.006,-69.41603,1564.181,-4164.972,
241,10,7,00:27:24,3162278,3,0,-,31895.13,-87.04579,1643.815,-31852.75,
246,10,12,00:27:40,1211528,3,0,-,110666.8,-87.74333,4357.663,-110580.9,
251,10,17,00:27:58,464158.9,3,0,-,289177.5,-84.77866,26316.28,-287977.6,
256,10,22,00:28:14,177828,3,0,-,736757.5,-77.91285,154276.7,-720423.7,
261,10,27,00:28:30,68129.21,3,0,-,1717429,-61.47575,820125.6,-1508959,
266,10,32,00:28:49,26101.57,3,0,-,2947973,-35.68362,2394492,-1719579,
271,10,37,00:29:06,10000,3,0,-,3355591,-18.0158,3191071,-1037815,
276,10,42,00:29:22,3831.187,3,0,-,3424583,-20.95445,3198099,-1224718,
281,10,47,00:29:39,1467.799,3,0,-,4428104,-38.21143,3479310,-2739070,
286,10,52,00:29:57,562.3413,3,0,-,7716831,-50.8722,4869725,-5986256,
291,10,57,00:30:15,215.4435,3,0,-,1.376426E+07,-55.58218,7779885,-1.135466E+07,
296,11,1,00:30:34,100,3,0,-,2.20943E+07,-62.36889,1.024684E+07,-1.957448E+07,
301,11,6,00:30:56,14.67799,3,0,-,1.101404E+08,-75.9215,2.67918E+07,-1.068322E+08,
306,11,11,00:31:40,2.154435,3,0,-,5.622005E+08,-62.08373,2.632116E+08,-4.967787E+08,
311,12,3,00:34:12,0.2154435,3,0,-,1.7533E+09,-32.79765,1.473805E+09,-9.497166E+08,
316,13,4,00:35:58,5623413,3,0,-,13721.74,-85.49921,1076.788,-13679.43,
321,13,9,00:36:15,2154435,3,0,-,57760.53,-89.89976,101.0773,-57760.44,
326,13,14,00:36:31,825404.2,3,0,-,163286.6,-86.82734,9037.176,-163036.3,
331,13,19,00:36:49,316227.8,3,0,-,421156.8,-82.75627,53103.98,-417795.5,
336,13,24,00:37:05,121152.8,3,0,-,1056167,-72.60906,315677.9,-1007887,
341,13,29,00:37:24,46415.89,3,0,-,2243688,-51.60323,1393563,-1758442,
346,13,34,00:37:40,17782.79,3,0,-,3211084,-26.48667,2874043,-1432110,
351,13,39,00:37:57,6812.92,3,0,-,3358753,-16.713,3216870,-965902.4,
356,13,44,00:38:14,2610.157,3,0,-,3643439,-27.17806,3241172,-1664167,
361,13,49,00:38:31,1000,3,0,-,5403535,-44.61703,3846330,-3795252,
366,13,54,00:38:49,383.1187,3,0,-,9782291,-52.75959,5919860,-7787714,
371,13,59,00:39:07,146.7799,3,0,-,1.7244E+07,-58.47009,9017646,-1.469822E+07,
376,14,3,00:39:28,46.41589,3,0,-,3.949297E+07,-70.7175,1.304162E+07,-3.727748E+07,
381,14,8,00:39:54,6.812921,3,0,-,2.194069E+08,-73.6338,6.182352E+07,-2.105166E+08,
386,14,13,00:41:08,1,3,0,-,9.230575E+08,-50.49937,5.871448E+08,-7.122472E+08,
391,16,1,00:44:30,10000000,3,0,-,4495.888,-99.60236,-749.9565,-4432.897,
396,16,6,00:44:50,3831187,3,0,-,24296.57,-87.02103,1262.687,-24263.74,
401,16,11,00:45:07,1467799,3,0,-,87899.04,-90.12762,-195.7939,-87898.82,
406,16,16,00:45:25,562341.3,3,0,-,239266.5,-85.52032,18688.1,-238535.6,
411,16,21,00:45:41,215443.5,3,0,-,612765.8,-79.83051,108190.4,-603139.1,
416,16,26,00:45:57,82540.42,3,0,-,1473413,-65.63818,607779.6,-1342218,
421,16,31,00:46:16,31622.78,3,0,-,2740407,-40.7611,2075690,-1789229,
426,16,36,00:46:33,12115.28,3,0,-,3322783,-20.13021,3119804,-1143552,
431,16,41,00:46:49,4641.589,3,0,-,3379114,-18.80958,3198654,-1089507,
436,16,46,00:47:06,1778.279,3,0,-,4067043,-34.52948,3350571,-2305322,
441,16,51,00:47:24,681.2921,3,0,-,6814577,-49.13474,4458659,-5153525,
446,16,56,00:47:42,261.0157,3,0,-,1.226578E+07,-54.47458,7127205,-9982596,
451,16,61,00:48:00,100,3,0,-,2.201436E+07,-62.39293,1.020158E+07,-1.950794E+07,
456,17,5,00:48:21,21.54435,3,0,-,7.746966E+07,-75.38054,1.955321E+07,-7.496146E+07,
461,17,10,00:48:54,3.162278,3,0,-,4.187427E+08,-66.94125,1.64011E+08,-3.852867E+08,
466,18,2,00:50:42,0.4641589,3,0,-,1.319767E+09,-39.79062,1.014094E+09,-8.446298E+08,
471,19,3,00:53:42,6812921,3,0,-,10482.1,-84.71774,965.0105,-10437.59,
476,19,8,00:54:01,2610157,3,0,-,46682.61,-89.04381,779.0504,-46676.11,
481,19,13,00:54:17,1000000,3,0,-,134654.1,-87.37944,6156.624,-134513.3,
486,19,18,00:54:35,383118.7,3,0,-,349272.3,-83.66291,38551.98,-347138.2,
491,19,23,00:54:51,146779.9,3,0,-,882869.4,-74.85619,230643.4,-852210.1,
496,19,28,00:55:10,56234.13,3,0,-,1953404,-55.69556,1100920,-1613618,
501,19,33,00:55:26,21544.35,3,0,-,2995516,-29.71455,2601623,-1484815,
506,19,38,00:55:43,8254.041,3,0,-,3213673,-16.70926,3077979,-923979.9,
511,19,43,00:56:00,3162.278,3,0,-,3372170,-24.15821,3076832,-1380086,
516,19,48,00:56:17,1211.528,3,0,-,4725206,-41.96406,3513495,-3159576,
521,19,53,00:56:34,464.1589,3,0,-,8402827,-51.61109,5218124,-6586250,
526,19,58,00:56:53,177.8279,3,0,-,1.475604E+07,-57.21564,7990087,-1.240562E+07,
531,20,2,00:57:13,68.1292,3,0,-,2.830941E+07,-67.35542,1.089951E+07,-2.612707E+07,
536,20,7,00:57:34,10,3,0,-,1.518586E+08,-73.93239,4.203018E+07,-1.459264E+08,
541,20,12,00:58:30,1.467799,3,0,-,6.60887E+08,-52.78192,3.997379E+08,-5.2629E+08,
546,21,4,01:02:24,0.1,3,0,-,1.910622E+09,-30.18187,1.651607E+09,-9.605583E+08,
551,22,5,01:02:50,4641589,3,0,-,18192.8,-87.01974,945.8848,-18168.2,
556,22,10,01:03:06,1778280,3,0,-,71308.48,-90.08719,-108.5123,-71308.4,
561,22,15,01:03:23,681292.1,3,0,-,197559.2,-86.00331,13769.71,-197078.8,
566,22,20,01:03:40,261015.7,3,0,-,507390.4,-80.85152,80671.86,-500936.2,
571,22,25,01:03:57,100000,3,0,-,1239504,-67.97948,464738,-1149082,
576,22,30,01:04:15,38311.87,3,0,-,2407655,-44.16511,1727096,-1677482,
580,22,34,01:04:29,17782.79,3,0,-,3018044,-24.94096,2736590,-1272661,