Folder: dielectric_spectroscopy_gui/data_example/1_solartron_output (part 3)

File: V429_w53.csv
Exported SMaRT Impedance Data
Experiment start time : 3/7/2011 8:12:34 AM

Result Number,Sweep Number,Point Number,Time,Frequency (Hz),AC Level (V),DC Level (V),Temperature (K),Impedance Magnitude (Ohms),Impedance Phase Degrees ('),Impedance Real (Ohms),Impedance Imaginary (Ohms)
1,1,1,00:00:08,10000000,3,0,-,4550.457,-99.52496,-753.0001,-4487.722,
3,1,3,00:00:26,6812921,3,0,-,10548.1,-84.36404,1035.906,-10497.11,
5,1,5,00:00:38,4641589,3,0,-,18221.3,-86.70509,1047.281,-18191.18,
7,1,7,00:00:45,3162278,3,0,-,31924.76,-86.7017,1836.786,-31871.88,
9,1,9,00:00:51,2154435,3,0,-,57742.02,-89.79803,203.56,-57741.66,
11,1,11,00:00:58,1467799,3,0,-,87841.23,-90.48975,-750.8677,-87838.02,
13,1,13,00:01:04,1000000,3,0,-,134606.1,-87.96243,4785.934,-134521,
15,1,15,00:01:11,681292.1,3,0,-,198173.1,-87.32342,9254.391,-197956.9,
17,1,17,00:01:19,464158.9,3,0,-,290370.1,-86.50713,17690.72,-289830.7,
19,1,19,00:01:25,316227.8,3,0,-,424969.5,-85.17751,35726.88,-423465.1,
21,1,21,00:01:32,215443.5,3,0,-,620371.9,-83.33672,71984.6,-616181.4,
23,1,23,00:01:39,146779.9,3,0,-,904923.3,-80.38258,151184.3,-892204.8,
25,1,25,00:01:45,100000,3,0,-,1306679,-76.32635,308887.7,-1269645,
27,1,27,00:01:52,68129.21,3,0,-,1856231,-70.63313,615555.5,-1751195,
29,1,29,00:02:01,46415.89,3,0,-,2568524,-63.04666,1164222,-2289521,
31,1,31,00:02:07,31622.78,3,0,-,3387650,-53.42577,2018579,-2720573,
33,1,33,00:02:14,21544.35,3,0,-,4201569,-42.83344,3081150,-2856518,
35,1,35,00:02:21,14677.99,3,0,-,4792087,-32.63076,4035718,-2584003,
37,1,37,00:02:27,10000,3,0,-,5124111,-24.49294,4663005,-2124359,
39,1,39,00:02:34,6812.92,3,0,-,5240515,-19.45496,4941300,-1745436,
41,1,41,00:02:41,4641.589,3,0,-,5260662,-17.85558,5007269,-1613017,
43,1,43,00:02:47,3162.278,3,0,-,5297883,-19.84726,4983194,-1798705,
45,1,45,00:02:54,2154.435,3,0,-,5503064,-24.89445,4991746,-2316503,
47,1,47,00:03:01,1467.799,3,0,-,6018917,-32.15774,5095531,-3203580,
49,1,49,00:03:07,1000,3,0,-,6950935,-40.25558,5304743,-4491681,
51,1,51,00:03:14,681.2921,3,0,-,8578914,-47.61528,5783094,-6336687,
53,1,53,00:03:21,464.1589,3,0,-,1.106437E+07,-53.10865,6641940,-8849012,
55,1,55,00:03:28,316.2278,3,0,-,1.456026E+07,-56.21651,8096326,-1.210169E+07,
57,1,57,00:03:36,215.4435,3,0,-,1.90662E+07,-57.37342,1.027976E+07,-1.60576E+07,
59,1,59,00:03:43,146.7799,3,0,-,2.447482E+07,-57.73152,1.30668E+07,-2.069482E+07,
61,1,61,00:03:50,100,3,0,-,3.091844E+07,-58.62452,1.609751E+07,-2.639735E+07,
63,2,2,00:04:01,68.1292,3,0,-,3.898671E+07,-60.77812,1.903305E+07,-3.402509E+07,
65,2,4,00:04:08,31.62278,3,0,-,6.5882E+07,-68.39246,2.426086E+07,-6.125233E+07,
67,2,6,00:04:17,14.67799,3,0,-,1.250718E+08,-75.86672,3.053983E+07,-1.212859E+08,
69,2,8,00:04:31,6.812921,3,0,-,2.538256E+08,-79.67005,4.551518E+07,-2.497114E+08,
71,2,10,00:04:49,3.162278,3,0,-,5.21414E+08,-79.91156,9.133518E+07,-5.133522E+08,
73,2,12,00:05:19,1.467799,3,0,-,1.064119E+09,-77.20525,2.356592E+08,-1.037696E+09,
75,3,1,00:06:04,1,3,0,-,1.492225E+09,-74.69305,3.93933E+08,-1.439289E+09,
77,3,3,00:07:16,0.2154435,3,0,-,4.875065E+09,-56.69581,2.676821E+09,-4.074419E+09,
79,4,1,00:09:32,10000000,3,0,-,4530.701,-99.87057,-776.6682,-4463.635,
81,4,3,00:09:40,6812921,3,0,-,10566.23,-84.6478,985.5969,-10520.17,
83,4,5,00:09:49,4641589,3,0,-,18279.41,-87.0992,925.0706,-18255.99,
85,4,7,00:09:56,3162278,3,0,-,31959.85,-87.10619,1613.501,-31919.09,
87,4,9,00:10:03,2154435,3,0,-,57934.74,-90.25504,-257.8859,-57934.16,
89,4,11,00:10:09,1467799,3,0,-,88105.39,-90.69739,-1072.391,-88098.87,
91,4,13,00:10:16,1000000,3,0,-,135241.4,-88.12325,4429.13,-135168.9,
93,4,15,00:10:22,681292.1,3,0,-,198495.4,-87.36491,9125.86,-198285.5,
95,4,17,00:10:30,464158.9,3,0,-,290627.5,-86.43571,18067.98,-290065.3,
97,4,19,00:10:37,316227.8,3,0,-,425471.1,-85.15086,35966.23,-423948.2,
99,4,21,00:10:43,215443.5,3,0,-,620436.9,-83.27966,72605.78,-616173.9,
101,4,23,00:10:50,146779.9,3,0,-,906099.1,-80.26176,153264.4,-893042.9,
103,4,25,00:10:56,100000,3,0,-,1305626,-76.24545,310429.8,-1268184,
105,4,27,00:11:03,68129.21,3,0,-,1853555,-70.58172,616236.9,-1748118,
107,4,29,00:11:12,46415.89,3,0,-,2559861,-62.8294,1168939,-2277382,
109,4,31,00:11:18,31622.78,3,0,-,3376844,-53.20305,2022666,-2704052,
111,4,33,00:11:24,21544.35,3,0,-,4167104,-42.49289,3072662,-2814873,
113,4,35,00:11:31,14677.99,3,0,-,4780729,-32.39262,4036834,-2561122,
115,4,37,00:11:38,10000,3,0,-,5087997,-24.39539,4633725,-2101501,
117,4,39,00:11:45,6812.92,3,0,-,5202210,-19.3501,4908346,-1723697,
119,4,41,00:11:51,4641.589,3,0,-,5240196,-17.87998,4987103,-1608866,
121,4,43,00:11:58,3162.278,3,0,-,5260255,-19.74777,4950895,-1777335,
123,4,45,00:12:05,2154.435,3,0,-,5467758,-25.00411,4955306,-2311130,
125,4,47,00:12:11,1467.799,3,0,-,5988018,-32.26507,5063393,-3196625,
127,4,49,00:12:18,1000,3,0,-,6919052,-40.36117,5272162,-4480803,
129,4,51,00:12:25,681.2921,3,0,-,8549298,-47.68682,5755241,-6322002,
131,4,53,00:12:32,464.1589,3,0,-,1.103074E+07,-53.1335,6617926,-8824986,
133,4,55,00:12:39,316.2278,3,0,-,1.451071E+07,-56.19028,8074295,-1.205681E+07,
135,4,57,00:12:47,215.4435,3,0,-,1.89875E+07,-57.31459,1.025375E+07,-1.59808E+07,
137,4,59,00:12:54,146.7799,3,0,-,2.436262E+07,-57.69088,1.302151E+07,-2.059072E+07,
139,4,61,00:13:01,100,3,0,-,3.075592E+07,-58.63703,1.600717E+07,-2.626209E+07,
141,5,2,00:13:12,68.1292,3,0,-,3.879907E+07,-60.82477,1.891386E+07,-3.387674E+07,
143,5,4,00:13:19,31.62278,3,0,-,6.564046E+07,-68.507,2.404986E+07,-6.107598E+07,
145,5,6,00:13:28,14.67799,3,0,-,1.248421E+08,-75.94205,3.032456E+07,-1.211032E+08,
147,5,8,00:13:42,6.812921,3,0,-,2.53483E+08,-79.6801,4.541001E+07,-2.493823E+08,
149,5,10,00:13:58,3.162278,3,0,-,5.205925E+08,-79.85127,9.17306E+07,-5.124471E+08,
151,5,12,00:14:28,1.467799,3,0,-,1.061628E+09,-77.09546,2.370909E+08,-1.034815E+09,
153,6,1,00:15:13,1,3,0,-,1.489805E+09,-74.53632,3.972234E+08,-1.435873E+09,
155,6,3,00:16:27,0.2154435,3,0,-,4.848944E+09,-55.37586,2.755124E+09,-3.990181E+09,
157,7,1,00:18:42,10000000,3,0,-,4529.892,-100.1931,-801.6432,-4458.395,
159,7,3,00:18:50,6812921,3,0,-,10566.47,-84.83936,950.4409,-10523.64,
161,7,5,00:19:00,4641589,3,0,-,18282.15,-87.31405,856.7355,-18262.07,
163,7,7,00:19:06,3162278,3,0,-,32019.06,-87.33585,1488.305,-31984.46,
165,7,9,00:19:13,2154435,3,0,-,57965.63,-90.28601,-289.3767,-57964.91,
167,7,11,00:19:19,1467799,3,0,-,88212.33,-90.72336,-1113.711,-88205.3,
169,7,13,00:19:26,1000000,3,0,-,134941.4,-88.10273,4467.628,-134867.4,
171,7,15,00:19:32,681292.1,3,0,-,198603.7,-87.36375,9134.84,-198393.5,
173,7,17,00:19:40,464158.9,3,0,-,290493.9,-86.48835,17793.29,-289948.4,
175,7,19,00:19:47,316227.8,3,0,-,424884.7,-85.23772,35274.8,-423417.9,
177,7,21,00:19:53,215443.5,3,0,-,620031.7,-83.30603,72274.91,-615804.9,
179,7,23,00:20:00,146779.9,3,0,-,905201.1,-80.22443,153693.8,-892057.9,
181,7,25,00:20:06,100000,3,0,-,1305419,-76.17368,311968.9,-1267594,
183,7,27,00:20:12,68129.21,3,0,-,1854456,-70.4656,620080,-1747715,
185,7,29,00:20:21,46415.89,3,0,-,2564483,-62.794,1172459,-2280770,
187,7,31,00:20:28,31622.78,3,0,-,3372855,-53.11259,2024538,-2697665,
189,7,33,00:20:34,21544.35,3,0,-,4153146,-42.35999,3068869,-2798333,
191,7,35,00:20:41,14677.99,3,0,-,4726003,-32.30005,3994708,-2525354,
193,7,37,00:20:48,10000,3,0,-,5058660,-24.39406,4607056,-2089277,
195,7,39,00:20:55,6812.92,3,0,-,5174873,-19.31442,4883619,-1711599,
197,7,41,00:21:01,4641.589,3,0,-,5199785,-17.7508,4952231,-1585297,
199,7,43,00:21:08,3162.278,3,0,-,5246636,-19.80372,4936344,-1777555,
201,7,45,00:21:14,2154.435,3,0,-,5454408,-24.97697,4944299,-2303145,
203,7,47,00:21:21,1467.799,3,0,-,5976173,-32.35276,5048489,-3198032,
205,7,49,00:21:28,1000,3,0,-,6909183,-40.40438,5261266,-4478381,
207,7,51,00:21:35,681.2921,3,0,-,8537417,-47.71876,5743722,-6316419,
209,7,53,00:21:42,464.1589,3,0,-,1.101605E+07,-53.12502,6610414,-8812253,
211,7,55,00:21:49,316.2278,3,0,-,1.448955E+07,-56.16225,8068411,-1.203528E+07,
213,7,57,00:21:57,215.4435,3,0,-,1.895483E+07,-57.28077,1.024552E+07,-1.594726E+07,
215,7,59,00:22:04,146.7799,3,0,-,2.430844E+07,-57.67389,1.299864E+07,-2.054107E+07,
217,7,61,00:22:12,100,3,0,-,3.068539E+07,-58.63814,1.596995E+07,-2.620217E+07,
219,8,2,00:22:22,68.1292,3,0,-,3.869959E+07,-60.85752,1.884605E+07,-3.380066E+07,
221,8,4,00:22:29,31.62278,3,0,-,6.553888E+07,-68.54786,2.396915E+07,-6.099856E+07,
223,8,6,00:22:38,14.67799,3,0,-,1.24729E+08,-75.9819,3.021296E+07,-1.210145E+08,
225,8,8,00:22:52,6.812921,3,0,-,2.533055E+08,-79.69321,4.53212E+07,-2.492181E+08,
227,8,10,00:23:11,3.162278,3,0,-,5.203194E+08,-79.85169,9.167876E+07,-5.121789E+08,
229,8,12,00:23:41,1.467799,3,0,-,1.060836E+09,-77.0535,2.376712E+08,-1.03387E+09,
231,9,1,00:24:26,1,3,0,-,1.487755E+09,-74.47211,3.982832E+08,-1.433452E+09,
233,9,3,00:25:40,0.2154435,3,0,-,4.854185E+09,-55.69769,2.735622E+09,-4.009923E+09,
235,10,1,00:27:55,10000000,3,0,-,4540.569,-99.56088,-754.1683,-4477.499,
236,10,2,00:28:00,8254042,3,0,-,4481.491,-68.89741,1613.512,-4180.95,

File: V429_w53b.csv
Exported SMaRT Impedance Data
Experiment start time : 3/7/2011 8:41:15 AM

Result Number,Sweep Number,Point Number,Time,Frequency (Hz),AC Level (V),DC Level (V),Temperature (K),Impedance Magnitude (Ohms),Impedance Phase Degrees ('),Impedance Real (Ohms),Impedance Imaginary (Ohms)
1,1,1,00:00:08,10000000,3,0,-,4543.613,-99.69275,-764.9857,-4478.752,
4,1,4,00:00:21,5623413,3,0,-,13782.47,-85.20859,1151.233,-13734.3,
7,1,7,00:00:31,3162278,3,0,-,31924.29,-86.90134,1725.694,-31877.62,
10,1,10,00:00:41,1778280,3,0,-,71385.58,-90.45602,-568.1834,-71383.32,
13,1,13,00:00:51,1000000,3,0,-,134665.6,-87.99246,4717.504,-134582.9,
16,1,16,00:01:02,562341.3,3,0,-,239963.5,-86.91583,12910.8,-239615.9,
19,1,19,00:01:12,316227.8,3,0,-,425146.1,-85.17569,35755.23,-423639.9,
22,1,22,00:01:21,177828,3,0,-,748723.4,-81.99759,104233.5,-741432.5,
25,1,25,00:01:31,100000,3,0,-,1305570,-76.15455,312428.1,-1267636,
28,1,28,00:01:43,56234.13,3,0,-,2190270,-66.85692,860839.4,-2014011,
31,1,31,00:01:53,31622.78,3,0,-,3371749,-53.09332,2024781,-2696099,
34,1,34,00:02:03,17782.79,3,0,-,4475499,-37.12449,3568432,-2701182,
37,1,37,00:02:13,10000,3,0,-,5046221,-24.3322,4597975,-2079176,
40,1,40,00:02:23,5623.413,3,0,-,5189892,-18.12564,4932352,-1614585,
43,1,43,00:02:33,3162.278,3,0,-,5238560,-19.94004,4924508,-1786540,
46,1,46,00:02:43,1778.279,3,0,-,5664111,-28.45833,4979682,-2699059,
49,1,49,00:02:53,1000,3,0,-,6903302,-40.42148,5255452,-4476137,
52,1,52,00:03:04,562.3413,3,0,-,9660623,-50.6871,6120538,-7474400,
55,1,55,00:03:14,316.2278,3,0,-,1.448037E+07,-56.162,8063347,-1.202761E+07,
58,1,58,00:03:25,177.8279,3,0,-,2.149994E+07,-57.46177,1.156401E+07,-1.812515E+07,
61,1,61,00:03:36,100,3,0,-,3.066027E+07,-58.62997,1.596061E+07,-2.617845E+07,
64,2,3,00:03:50,46.41589,3,0,-,4.954398E+07,-64.3857,2.14184E+07,-4.467503E+07,
67,2,6,00:04:02,14.67799,3,0,-,1.246577E+08,-76.00347,3.015013E+07,-1.209566E+08,
70,2,9,00:04:24,4.641589,3,0,-,3.63151E+08,-80.17202,6.19866E+07,-3.578216E+08,
73,2,12,00:05:05,1.467799,3,0,-,1.061392E+09,-77.07266,2.374498E+08,-1.034491E+09,
76,3,2,00:06:24,0.4641589,3,0,-,2.810136E+09,-67.24035,1.087148E+09,-2.591327E+09,
79,3,5,00:13:34,0.04641589,3,0,-,9.411227E+09,-35.33865,7.677187E+09,-5.443527E+09,
82,4,1,00:36:30,10000000,3,0,-,4533.517,-100.0671,-792.4676,-4463.717,
85,4,4,00:36:44,5623413,3,0,-,13794.39,-85.54775,1070.838,-13752.76,
88,4,7,00:36:54,3162278,3,0,-,32002.29,-87.18221,1573.239,-31963.6,
91,4,10,00:37:03,1778280,3,0,-,71531.88,-90.59753,-745.9984,-71527.98,
94,4,13,00:37:13,1000000,3,0,-,134691.8,-87.96422,4784.785,-134606.8,
97,4,16,00:37:24,562341.3,3,0,-,240166,-86.84194,13230.97,-239801.3,
100,4,19,00:37:34,316227.8,3,0,-,424644.8,-84.96487,37269.79,-423006.2,
103,4,22,00:37:43,177828,3,0,-,747548.1,-81.64363,108641.1,-739611.5,
106,4,25,00:37:53,100000,3,0,-,1301283,-75.52979,325160.6,-1260003,
109,4,28,00:38:05,56234.13,3,0,-,2171149,-65.84383,888489.6,-1981029,
112,4,31,00:38:15,31622.78,3,0,-,3304842,-51.6771,2049309,-2592743,
115,4,34,00:38:25,17782.79,3,0,-,4318723,-35.77738,3503757,-2524887,
118,4,37,00:38:35,10000,3,0,-,4813822,-23.41465,4417419,-1912928,
121,4,40,00:38:45,5623.413,3,0,-,4926896,-17.81615,4690618,-1507451,
124,4,43,00:38:55,3162.278,3,0,-,4986023,-20.15889,4680582,-1718306,
127,4,46,00:39:05,1778.279,3,0,-,5421373,-29.42072,4722212,-2663080,
130,4,49,00:39:15,1000,3,0,-,6687656,-41.30495,5023815,-4414298,
133,4,52,00:39:26,562.3413,3,0,-,9416323,-51.24658,5894337,-7343292,
136,4,55,00:39:36,316.2278,3,0,-,1.41E+07,-55.93074,7898748,-1.167989E+07,
139,4,58,00:39:48,177.8279,3,0,-,2.07177E+07,-57.12081,1.124701E+07,-1.739908E+07,
142,4,61,00:39:58,100,3,0,-,2.936407E+07,-58.79408,1.521398E+07,-2.51154E+07,
145,5,3,00:40:12,46.41589,3,0,-,4.787593E+07,-65.32601,1.998603E+07,-4.350475E+07,
148,5,6,00:40:24,14.67799,3,0,-,1.229111E+08,-76.56548,2.855645E+07,-1.195477E+08,
151,5,9,00:40:44,4.641589,3,0,-,3.585604E+08,-79.75256,6.378786E+07,-3.528409E+08,
154,5,12,00:41:23,1.467799,3,0,-,1.035466E+09,-75.47396,2.597159E+08,-1.002366E+09,
157,6,2,00:42:39,0.4641589,3,0,-,2.652935E+09,-63.43001,1.186634E+09,-2.372754E+09,
160,6,5,00:49:48,0.04641589,3,0,-,7.41111E+09,-33.05951,6.211285E+09,-4.042832E+09,
163,7,1,01:22:31,10000000,3,0,-,4531.071,-100.1425,-797.9067,-4460.263,
166,7,4,01:22:45,5623413,3,0,-,13746.93,-85.61994,1049.885,-13706.78,
169,7,7,01:22:55,3162278,3,0,-,32006.13,-87.18647,1571.052,-31967.54,
172,7,10,01:23:05,1778280,3,0,-,71494.91,-90.56775,-708.4471,-71491.41,
175,7,13,01:23:15,1000000,3,0,-,134747,-87.84301,5071.611,-134651.6,
178,7,16,01:23:26,562341.3,3,0,-,240039.3,-86.63961,14070.29,-239626.6,
181,7,19,01:23:35,316227.8,3,0,-,424188.3,-84.64886,39559.6,-422339.6,
184,7,22,01:23:45,177828,3,0,-,747315.9,-81.04297,116352.6,-738202.7,
187,7,25,01:23:55,100000,3,0,-,1294105,-74.64311,342719.1,-1247899,
190,7,28,01:24:07,56234.13,3,0,-,2147823,-64.45088,926323.6,-1937800,
193,7,31,01:24:16,31622.78,3,0,-,3218923,-49.93613,2071832,-2463530,
196,7,34,01:24:26,17782.79,3,0,-,4133674,-34.17813,3419769,-2322164,
199,7,37,01:24:36,10000,3,0,-,4549188,-22.40244,4205860,-1733740,
202,7,40,01:24:46,5623.413,3,0,-,4641217,-17.63341,4423146,-1405944,
205,7,43,01:24:56,3162.278,3,0,-,4689337,-20.58194,4390018,-1648520,
208,7,46,01:25:06,1778.279,3,0,-,5182320,-30.23898,4477174,-2609857,
211,7,49,01:25:17,1000,3,0,-,6477662,-42.05116,4809970,-4338698,
214,7,52,01:25:27,562.3413,3,0,-,9179734,-51.17839,5754755,-7151945,
217,7,55,01:25:37,316.2278,3,0,-,1.369641E+07,-55.59884,7738249,-1.130093E+07,
220,7,58,01:25:49,177.8279,3,0,-,1.993157E+07,-56.82899,1.090536E+07,-1.668354E+07,
223,7,61,01:25:59,100,3,0,-,2.816614E+07,-59.02641,1.449551E+07,-2.414978E+07,
226,8,3,01:26:13,46.41589,3,0,-,4.643427E+07,-66.2075,1.873278E+07,-4.248793E+07,
229,8,6,01:26:25,14.67799,3,0,-,1.212547E+08,-76.93708,2.740615E+07,-1.18117E+08,
232,8,9,01:26:46,4.641589,3,0,-,3.535902E+08,-79.22784,6.608751E+07,-3.473593E+08,
235,8,12,01:27:25,1.467799,3,0,-,1.009467E+09,-73.88165,2.80251E+08,-9.697854E+08,
238,9,2,01:28:43,0.4641589,3,0,-,2.482802E+09,-59.99521,1.241581E+09,-2.150066E+09,
241,9,5,01:35:56,0.04641589,3,0,-,6.192641E+09,-29.79646,5.37395E+09,-3.077248E+09,
244,10,1,01:58:56,10000000,3,0,-,4548.514,-99.17514,-725.2747,-4490.318,
247,10,4,01:59:10,5623413,3,0,-,13737.21,-84.80348,1244.211,-13680.75,
250,10,7,01:59:20,3162278,3,0,-,31868.08,-86.54851,1918.58,-31810.28,
253,10,10,01:59:29,1778280,3,0,-,71095.23,-90.13849,-171.8676,-71095.02,
256,10,13,01:59:39,1000000,3,0,-,134197.1,-87.70727,5368.605,-134089.7,
259,10,16,01:59:50,562341.3,3,0,-,239197.9,-86.31771,15362.28,-238704.1,
262,10,19,02:00:00,316227.8,3,0,-,423228.8,-84.13562,43243.18,-421013.8,
265,10,22,02:00:10,177828,3,0,-,743186.6,-80.09863,127793,-732116.9,
268,10,25,02:00:19,100000,3,0,-,1282211,-73.0019,374842,-1226197,
271,10,28,02:00:32,56234.13,3,0,-,2094713,-61.95081,984996.1,-1848677,
274,10,31,02:00:41,31622.78,3,0,-,3063876,-46.87704,2094363,-2236287,
277,10,34,02:00:51,17782.79,3,0,-,3816305,-31.43163,3256312,-1990130,
280,10,37,02:01:02,10000,3,0,-,4113358,-20.83613,3844351,-1463106,
283,10,40,02:01:12,5623.413,3,0,-,4157195,-17.36907,3967634,-1241029,
286,10,43,02:01:22,3162.278,3,0,-,4263273,-21.753,3959686,-1579995,
289,10,46,02:01:32,1778.279,3,0,-,4742299,-31.92859,4024827,-2508020,
292,10,49,02:01:42,1000,3,0,-,6103521,-43.32239,4440341,-4187642,
295,10,52,02:01:53,562.3413,3,0,-,8735129,-51.62119,5423276,-6847668,
298,10,55,02:02:03,316.2278,3,0,-,1.286022E+07,-54.89311,7395962,-1.052069E+07,
301,10,58,02:02:15,177.8279,3,0,-,1.839175E+07,-56.49339,1.015286E+07,-1.533545E+07,
304,10,61,02:02:25,100,3,0,-,2.594355E+07,-59.83797,1.303527E+07,-2.2431E+07,
307,11,3,02:02:39,46.41589,3,0,-,4.388577E+07,-67.78159,1.65949E+07,-4.06272E+07,
310,11,6,02:02:51,14.67799,3,0,-,1.179586E+08,-77.13137,2.627135E+07,-1.149958E+08,
313,11,9,02:03:12,4.641589,3,0,-,3.413884E+08,-77.33064,7.487498E+07,-3.330763E+08,
316,11,12,02:03:51,1.467799,3,0,-,9.423388E+08,-69.20388,3.345716E+08,-8.80945E+08,
319,12,2,02:05:08,0.4641589,3,0,-,2.129983E+09,-52.88316,1.285323E+09,-1.698463E+09,
322,12,5,02:13:03,0.04641589,3,0,-,5.67786E+09,-29.13947,4.959254E+09,-2.764761E+09,
323,12,6,02:22:25,0.02154435,3,0,-,5.517069E+09,-35.40815,4.496662E+09,-3.196573E+09,